participant,participant_task,task,task_order,trial_in_task,trial,choice,green_outcome,green_mag,blue_mag,rt,stable,volatile,run,reward_task,pain_task,green_good_outcome,reset
cb1,cb1_reward,reward,0,0,0,0,1.0,0.01,0.2,940.0,0.0,1.0,0.0,1.0,0.0,1.0,1.0
cb1,cb1_reward,reward,0,1,1,0,1.0,0.12,0.43,615.0,0.0,1.0,0.0,1.0,0.0,1.0,0.0
cb1,cb1_reward,reward,0,2,2,1,1.0,0.9,0.21,330.0,0.0,1.0,0.0,1.0,0.0,1.0,0.0
cb1,cb1_reward,reward,0,3,3,1,0.0,0.62,0.26,390.0,0.0,1.0,0.0,1.0,0.0,0.0,0.0
cb1,cb1_reward,reward,0,4,4,0,1.0,0.19,0.95,320.0,0.0,1.0,0.0,1.0,0.0,1.0,0.0
cb1,cb1_reward,reward,0,5,5,1,1.0,0.61,0.1,363.0,0.0,1.0,0.0,1.0,0.0,1.0,0.0
cb1,cb1_reward,reward,0,6,6,1,1.0,0.12,0.9,554.0,0.0,1.0,0.0,1.0,0.0,1.0,0.0
cb1,cb1_reward,reward,0,7,7,1,1.0,0.99,0.47,319.0,0.0,1.0,0.0,1.0,0.0,1.0,0.0
cb1,cb1_reward,reward,0,8,8,1,1.0,0.06,0.08,354.0,0.0,1.0,0.0,1.0,0.0,1.0,0.0
cb1,cb1_reward,reward,0,9,9,1,1.0,0.81,0.29,400.0,0.0,1.0,0.0,1.0,0.0,1.0,0.0
cb1,cb1_reward,reward,0,10,10,1,1.0,0.34,0.49,298.0,0.0,1.0,0.0,1.0,0.0,1.0,0.0
cb1,cb1_reward,reward,0,11,11,1,1.0,0.99,0.74,500.0,0.0,1.0,0.0,1.0,0.0,1.0,0.0
cb1,cb1_reward,reward,0,12,12,1,1.0,0.87,0.8,460.0,0.0,1.0,0.0,1.0,0.0,1.0,0.0
cb1,cb1_reward,reward,0,13,13,1,1.0,0.28,0.02,360.0,0.0,1.0,0.0,1.0,0.0,1.0,0.0
cb1,cb1_reward,reward,0,14,14,1,1.0,0.81,0.4,364.0,0.0,1.0,0.0,1.0,0.0,1.0,0.0
cb1,cb1_reward,reward,0,15,15,1,1.0,0.78,0.45,360.0,0.0,1.0,0.0,1.0,0.0,1.0,0.0
cb1,cb1_reward,reward,0,16,16,1,0.0,0.28,0.28,505.0,0.0,1.0,0.0,1.0,0.0,0.0,0.0
cb1,cb1_reward,reward,0,17,17,0,0.0,0.19,0.27,260.0,0.0,1.0,0.0,1.0,0.0,0.0,0.0
cb1,cb1_reward,reward,0,18,18,0,0.0,0.28,0.32,432.0,0.0,1.0,0.0,1.0,0.0,0.0,0.0
cb1,cb1_reward,reward,0,19,19,0,1.0,0.17,0.85,397.0,0.0,1.0,0.0,1.0,0.0,1.0,0.0
cb1,cb1_reward,reward,0,20,20,1,0.0,0.94,0.39,280.0,0.0,1.0,0.0,1.0,0.0,0.0,0.0
cb1,cb1_reward,reward,0,21,21,0,1.0,0.43,0.72,337.0,0.0,1.0,0.0,1.0,0.0,1.0,0.0
cb1,cb1_reward,reward,0,22,22,1,0.0,0.59,0.35,294.0,0.0,1.0,0.0,1.0,0.0,0.0,0.0
cb1,cb1_reward,reward,0,23,23,0,0.0,0.83,0.85,379.0,0.0,1.0,0.0,1.0,0.0,0.0,0.0
cb1,cb1_reward,reward,0,24,24,0,0.0,0.81,0.89,314.0,0.0,1.0,0.0,1.0,0.0,0.0,0.0
cb1,cb1_reward,reward,0,25,25,0,0.0,0.99,0.93,284.0,0.0,1.0,0.0,1.0,0.0,0.0,0.0
cb1,cb1_reward,reward,0,26,26,0,0.0,0.5,0.42,275.0,0.0,1.0,0.0,1.0,0.0,0.0,0.0
cb1,cb1_reward,reward,0,27,27,0,1.0,0.73,0.46,436.0,0.0,1.0,0.0,1.0,0.0,1.0,0.0
cb1,cb1_reward,reward,0,28,28,1,0.0,0.51,0.5,600.0,0.0,1.0,0.0,1.0,0.0,0.0,0.0
cb1,cb1_reward,reward,0,29,29,0,0.0,0.03,0.74,442.0,0.0,1.0,0.0,1.0,0.0,0.0,0.0
cb1,cb1_reward,reward,0,30,30,0,0.0,0.32,0.85,381.0,0.0,1.0,0.0,1.0,0.0,0.0,0.0
cb1,cb1_reward,reward,0,31,31,0,0.0,0.68,0.3,319.0,0.0,1.0,0.0,1.0,0.0,0.0,0.0
cb1,cb1_reward,reward,0,32,32,0,1.0,0.25,0.12,410.0,0.0,1.0,0.0,1.0,0.0,1.0,0.0
cb1,cb1_reward,reward,0,33,33,1,0.0,0.46,0.52,578.0,0.0,1.0,0.0,1.0,0.0,0.0,0.0
cb1,cb1_reward,reward,0,34,34,0,0.0,0.12,0.87,351.0,0.0,1.0,0.0,1.0,0.0,0.0,0.0
cb1,cb1_reward,reward,0,35,35,0,0.0,0.76,0.29,342.0,0.0,1.0,0.0,1.0,0.0,0.0,0.0
cb1,cb1_reward,reward,0,36,36,0,1.0,0.82,0.42,360.0,0.0,1.0,0.0,1.0,0.0,1.0,0.0
cb1,cb1_reward,reward,0,37,37,0,0.0,0.39,0.65,700.0,0.0,1.0,0.0,1.0,0.0,0.0,0.0
cb1,cb1_reward,reward,0,38,38,0,0.0,0.15,0.15,326.0,0.0,1.0,0.0,1.0,0.0,0.0,0.0
cb1,cb1_reward,reward,0,39,39,0,1.0,0.87,0.42,378.0,0.0,1.0,0.0,1.0,0.0,1.0,0.0
cb1,cb1_reward,reward,0,40,40,1,1.0,0.24,0.26,270.0,0.0,1.0,0.0,1.0,0.0,1.0,0.0
cb1,cb1_reward,reward,0,41,41,1,1.0,0.4,0.5,358.0,0.0,1.0,0.0,1.0,0.0,1.0,0.0
cb1,cb1_reward,reward,0,42,42,1,1.0,0.66,0.61,305.0,0.0,1.0,0.0,1.0,0.0,1.0,0.0
cb1,cb1_reward,reward,0,43,43,1,1.0,0.95,0.14,353.0,0.0,1.0,0.0,1.0,0.0,1.0,0.0
cb1,cb1_reward,reward,0,44,44,1,1.0,0.33,0.11,390.0,0.0,1.0,0.0,1.0,0.0,1.0,0.0
cb1,cb1_reward,reward,0,45,45,0,1.0,0.4,0.68,564.0,0.0,1.0,0.0,1.0,0.0,1.0,0.0
cb1,cb1_reward,reward,0,46,46,1,1.0,0.45,0.3,321.0,0.0,1.0,0.0,1.0,0.0,1.0,0.0
cb1,cb1_reward,reward,0,47,47,1,0.0,0.52,0.7,303.0,0.0,1.0,0.0,1.0,0.0,0.0,0.0
cb1,cb1_reward,reward,0,48,48,0,1.0,0.79,0.64,460.0,0.0,1.0,0.0,1.0,0.0,1.0,0.0
cb1,cb1_reward,reward,0,49,49,1,1.0,0.67,0.19,301.0,0.0,1.0,0.0,1.0,0.0,1.0,0.0
cb1,cb1_reward,reward,0,50,50,1,1.0,0.11,0.22,365.0,0.0,1.0,0.0,1.0,0.0,1.0,0.0
cb1,cb1_reward,reward,0,51,51,1,0.0,0.1,0.21,360.0,0.0,1.0,0.0,1.0,0.0,0.0,0.0
cb1,cb1_reward,reward,0,52,52,1,1.0,0.76,0.13,401.0,0.0,1.0,0.0,1.0,0.0,1.0,0.0
cb1,cb1_reward,reward,0,53,53,1,1.0,0.28,0.61,400.0,0.0,1.0,0.0,1.0,0.0,1.0,0.0
cb1,cb1_reward,reward,0,54,54,1,0.0,0.56,0.74,364.0,0.0,1.0,0.0,1.0,0.0,0.0,0.0
cb1,cb1_reward,reward,0,55,55,0,1.0,0.39,0.34,257.0,0.0,1.0,0.0,1.0,0.0,1.0,0.0
cb1,cb1_reward,reward,0,56,56,1,1.0,0.89,0.18,300.0,0.0,1.0,0.0,1.0,0.0,1.0,0.0
cb1,cb1_reward,reward,0,57,57,1,1.0,0.54,0.78,338.0,0.0,1.0,0.0,1.0,0.0,1.0,0.0
cb1,cb1_reward,reward,0,58,58,0,1.0,0.02,0.87,340.0,0.0,1.0,0.0,1.0,0.0,1.0,0.0
cb1,cb1_reward,reward,0,59,59,1,1.0,0.57,0.17,261.0,0.0,1.0,0.0,1.0,0.0,1.0,0.0
cb1,cb1_reward,reward,0,60,60,1,0.0,0.22,0.35,461.0,0.0,1.0,1.0,1.0,0.0,0.0,0.0
cb1,cb1_reward,reward,0,61,61,1,1.0,0.88,0.21,296.0,0.0,1.0,1.0,1.0,0.0,1.0,0.0
cb1,cb1_reward,reward,0,62,62,1,0.0,0.19,0.46,326.0,0.0,1.0,1.0,1.0,0.0,0.0,0.0
cb1,cb1_reward,reward,0,63,63,1,0.0,0.53,0.06,290.0,0.0,1.0,1.0,1.0,0.0,0.0,0.0
cb1,cb1_reward,reward,0,64,64,0,0.0,0.55,0.69,260.0,0.0,1.0,1.0,1.0,0.0,0.0,0.0
cb1,cb1_reward,reward,0,65,65,0,0.0,0.89,0.81,300.0,0.0,1.0,1.0,1.0,0.0,0.0,0.0
cb1,cb1_reward,reward,0,66,66,0,0.0,0.54,0.83,446.0,0.0,1.0,1.0,1.0,0.0,0.0,0.0
cb1,cb1_reward,reward,0,67,67,0,0.0,0.7,0.39,240.0,0.0,1.0,1.0,1.0,0.0,0.0,0.0
cb1,cb1_reward,reward,0,68,68,0,0.0,0.36,0.5,466.0,0.0,1.0,1.0,1.0,0.0,0.0,0.0
cb1,cb1_reward,reward,0,69,69,0,0.0,0.17,0.8,354.0,0.0,1.0,1.0,1.0,0.0,0.0,0.0
cb1,cb1_reward,reward,0,70,70,0,0.0,0.3,0.44,440.0,0.0,1.0,1.0,1.0,0.0,0.0,0.0
cb1,cb1_reward,reward,0,71,71,0,0.0,0.59,0.22,407.0,0.0,1.0,1.0,1.0,0.0,0.0,0.0
cb1,cb1_reward,reward,0,72,72,0,0.0,0.65,0.75,520.0,0.0,1.0,1.0,1.0,0.0,0.0,0.0
cb1,cb1_reward,reward,0,73,73,0,0.0,0.71,0.34,906.0,0.0,1.0,1.0,1.0,0.0,0.0,0.0
cb1,cb1_reward,reward,0,74,74,0,1.0,0.53,0.78,324.0,0.0,1.0,1.0,1.0,0.0,1.0,0.0
cb1,cb1_reward,reward,0,75,75,1,0.0,0.83,0.59,481.0,0.0,1.0,1.0,1.0,0.0,0.0,0.0
cb1,cb1_reward,reward,0,76,76,0,1.0,0.21,0.71,360.0,0.0,1.0,1.0,1.0,0.0,1.0,0.0
cb1,cb1_reward,reward,0,77,77,1,0.0,0.78,0.78,420.0,0.0,1.0,1.0,1.0,0.0,0.0,0.0
cb1,cb1_reward,reward,0,78,78,0,0.0,0.83,0.47,250.0,0.0,1.0,1.0,1.0,0.0,0.0,0.0
cb1,cb1_reward,reward,0,79,79,0,0.0,0.47,0.59,510.0,0.0,1.0,1.0,1.0,0.0,0.0,0.0
cb1,cb1_reward,reward,0,80,80,0,1.0,0.19,0.02,451.0,0.0,1.0,1.0,1.0,0.0,1.0,0.0
cb1,cb1_reward,reward,0,81,81,1,1.0,0.36,0.04,380.0,0.0,1.0,1.0,1.0,0.0,1.0,0.0
cb1,cb1_reward,reward,0,82,82,0,1.0,0.07,0.36,267.0,0.0,1.0,1.0,1.0,0.0,1.0,0.0
cb1,cb1_reward,reward,0,83,83,1,1.0,0.62,0.72,300.0,0.0,1.0,1.0,1.0,0.0,1.0,0.0
cb1,cb1_reward,reward,0,84,84,1,0.0,0.4,0.32,440.0,0.0,1.0,1.0,1.0,0.0,0.0,0.0
cb1,cb1_reward,reward,0,85,85,0,1.0,0.35,0.62,276.0,0.0,1.0,1.0,1.0,0.0,1.0,0.0
cb1,cb1_reward,reward,0,86,86,0,1.0,0.9,0.91,1581.0,0.0,1.0,1.0,1.0,0.0,1.0,0.0
cb1,cb1_reward,reward,0,87,87,1,1.0,0.59,0.17,320.0,0.0,1.0,1.0,1.0,0.0,1.0,0.0
cb1,cb1_reward,reward,0,88,88,1,1.0,0.39,0.32,282.0,0.0,1.0,1.0,1.0,0.0,1.0,0.0
cb1,cb1_reward,reward,0,89,89,1,1.0,0.79,0.77,363.0,0.0,1.0,1.0,1.0,0.0,1.0,0.0
cb1,cb1_reward,reward,0,90,90,1,0.0,0.33,0.61,339.0,1.0,0.0,1.0,1.0,0.0,0.0,0.0
cb1,cb1_reward,reward,0,91,91,0,0.0,0.48,0.14,279.0,1.0,0.0,1.0,1.0,0.0,0.0,0.0
cb1,cb1_reward,reward,0,92,92,0,0.0,0.19,0.9,382.0,1.0,0.0,1.0,1.0,0.0,0.0,0.0
cb1,cb1_reward,reward,0,93,93,0,0.0,0.34,0.43,442.0,1.0,0.0,1.0,1.0,0.0,0.0,0.0
cb1,cb1_reward,reward,0,94,94,0,0.0,0.51,0.87,279.0,1.0,0.0,1.0,1.0,0.0,0.0,0.0
cb1,cb1_reward,reward,0,95,95,0,0.0,0.22,0.55,376.0,1.0,0.0,1.0,1.0,0.0,0.0,0.0
cb1,cb1_reward,reward,0,96,96,1,0.0,0.95,0.62,793.0,1.0,0.0,1.0,1.0,0.0,0.0,0.0
cb1,cb1_reward,reward,0,97,97,0,0.0,0.21,0.07,220.0,1.0,0.0,1.0,1.0,0.0,0.0,0.0
cb1,cb1_reward,reward,0,98,98,0,0.0,0.55,0.05,275.0,1.0,0.0,1.0,1.0,0.0,0.0,0.0
cb1,cb1_reward,reward,0,99,99,0,0.0,0.91,0.24,326.0,1.0,0.0,1.0,1.0,0.0,0.0,0.0
cb1,cb1_reward,reward,0,100,100,0,0.0,0.65,0.12,275.0,1.0,0.0,1.0,1.0,0.0,0.0,0.0
cb1,cb1_reward,reward,0,101,101,0,0.0,0.3,0.69,356.0,1.0,0.0,1.0,1.0,0.0,0.0,0.0
cb1,cb1_reward,reward,0,102,102,0,1.0,0.27,0.3,299.0,1.0,0.0,1.0,1.0,0.0,1.0,0.0
cb1,cb1_reward,reward,0,103,103,0,0.0,0.42,0.94,997.0,1.0,0.0,1.0,1.0,0.0,0.0,0.0
cb1,cb1_reward,reward,0,104,104,0,0.0,0.33,0.97,258.0,1.0,0.0,1.0,1.0,0.0,0.0,0.0
cb1,cb1_reward,reward,0,105,105,0,0.0,0.51,0.7,295.0,1.0,0.0,1.0,1.0,0.0,0.0,0.0
cb1,cb1_reward,reward,0,106,106,0,0.0,0.71,0.84,361.0,1.0,0.0,1.0,1.0,0.0,0.0,0.0
cb1,cb1_reward,reward,0,107,107,0,0.0,0.29,0.09,352.0,1.0,0.0,1.0,1.0,0.0,0.0,0.0
cb1,cb1_reward,reward,0,108,108,0,0.0,0.52,0.18,280.0,1.0,0.0,1.0,1.0,0.0,0.0,0.0
cb1,cb1_reward,reward,0,109,109,0,0.0,0.24,0.88,348.0,1.0,0.0,1.0,1.0,0.0,0.0,0.0
cb1,cb1_reward,reward,0,110,110,0,0.0,0.38,0.88,380.0,1.0,0.0,1.0,1.0,0.0,0.0,0.0
cb1,cb1_reward,reward,0,111,111,0,0.0,0.2,0.59,311.0,1.0,0.0,1.0,1.0,0.0,0.0,0.0
cb1,cb1_reward,reward,0,112,112,0,1.0,0.1,0.84,339.0,1.0,0.0,1.0,1.0,0.0,1.0,0.0
cb1,cb1_reward,reward,0,113,113,1,0.0,0.69,0.73,520.0,1.0,0.0,1.0,1.0,0.0,0.0,0.0
cb1,cb1_reward,reward,0,114,114,0,0.0,0.18,1.0,275.0,1.0,0.0,1.0,1.0,0.0,0.0,0.0
cb1,cb1_reward,reward,0,115,115,0,1.0,0.86,0.57,321.0,1.0,0.0,1.0,1.0,0.0,1.0,0.0
cb1,cb1_reward,reward,0,116,116,0,0.0,0.41,0.56,240.0,1.0,0.0,1.0,1.0,0.0,0.0,0.0
cb1,cb1_reward,reward,0,117,117,0,0.0,0.77,0.84,262.0,1.0,0.0,1.0,1.0,0.0,0.0,0.0
cb1,cb1_reward,reward,0,118,118,1,1.0,0.99,0.16,332.0,1.0,0.0,1.0,1.0,0.0,1.0,0.0
cb1,cb1_reward,reward,0,119,119,0,0.0,0.53,0.94,296.0,1.0,0.0,1.0,1.0,0.0,0.0,0.0
cb1,cb1_reward,reward,0,120,120,0,0.0,0.72,0.34,253.0,1.0,0.0,2.0,1.0,0.0,0.0,0.0
cb1,cb1_reward,reward,0,121,121,0,0.0,0.76,0.56,280.0,1.0,0.0,2.0,1.0,0.0,0.0,0.0
cb1,cb1_reward,reward,0,122,122,0,0.0,0.92,0.25,255.0,1.0,0.0,2.0,1.0,0.0,0.0,0.0
cb1,cb1_reward,reward,0,123,123,0,1.0,0.41,0.61,266.0,1.0,0.0,2.0,1.0,0.0,1.0,0.0
cb1,cb1_reward,reward,0,124,124,1,0.0,0.97,0.8,295.0,1.0,0.0,2.0,1.0,0.0,0.0,0.0
cb1,cb1_reward,reward,0,125,125,1,0.0,0.75,0.25,1057.0,1.0,0.0,2.0,1.0,0.0,0.0,0.0
cb1,cb1_reward,reward,0,126,126,0,0.0,0.91,0.43,243.0,1.0,0.0,2.0,1.0,0.0,0.0,0.0
cb1,cb1_reward,reward,0,127,127,0,0.0,0.15,0.22,329.0,1.0,0.0,2.0,1.0,0.0,0.0,0.0
cb1,cb1_reward,reward,0,128,128,0,1.0,0.19,0.64,575.0,1.0,0.0,2.0,1.0,0.0,1.0,0.0
cb1,cb1_reward,reward,0,129,129,0,0.0,0.09,0.15,355.0,1.0,0.0,2.0,1.0,0.0,0.0,0.0
cb1,cb1_reward,reward,0,130,130,0,1.0,0.58,0.39,292.0,1.0,0.0,2.0,1.0,0.0,1.0,0.0
cb1,cb1_reward,reward,0,131,131,1,0.0,0.85,0.32,280.0,1.0,0.0,2.0,1.0,0.0,0.0,0.0
cb1,cb1_reward,reward,0,132,132,0,0.0,0.94,0.51,304.0,1.0,0.0,2.0,1.0,0.0,0.0,0.0
cb1,cb1_reward,reward,0,133,133,0,0.0,0.33,0.79,321.0,1.0,0.0,2.0,1.0,0.0,0.0,0.0
cb1,cb1_reward,reward,0,134,134,0,0.0,0.51,0.5,378.0,1.0,0.0,2.0,1.0,0.0,0.0,0.0
cb1,cb1_reward,reward,0,135,135,0,1.0,0.63,0.2,742.0,1.0,0.0,2.0,1.0,0.0,1.0,0.0
cb1,cb1_reward,reward,0,136,136,1,0.0,0.51,0.9,309.0,1.0,0.0,2.0,1.0,0.0,0.0,0.0
cb1,cb1_reward,reward,0,137,137,0,0.0,0.64,0.73,271.0,1.0,0.0,2.0,1.0,0.0,0.0,0.0
cb1,cb1_reward,reward,0,138,138,0,1.0,0.47,0.7,302.0,1.0,0.0,2.0,1.0,0.0,1.0,0.0
cb1,cb1_reward,reward,0,139,139,0,0.0,0.52,0.77,249.0,1.0,0.0,2.0,1.0,0.0,0.0,0.0
cb1,cb1_reward,reward,0,140,140,0,0.0,0.58,0.25,400.0,1.0,0.0,2.0,1.0,0.0,0.0,0.0
cb1,cb1_reward,reward,0,141,141,0,0.0,0.93,0.82,360.0,1.0,0.0,2.0,1.0,0.0,0.0,0.0
cb1,cb1_reward,reward,0,142,142,0,1.0,0.43,0.91,259.0,1.0,0.0,2.0,1.0,0.0,1.0,0.0
cb1,cb1_reward,reward,0,143,143,0,0.0,0.17,0.42,534.0,1.0,0.0,2.0,1.0,0.0,0.0,0.0
cb1,cb1_reward,reward,0,144,144,0,1.0,0.2,0.35,346.0,1.0,0.0,2.0,1.0,0.0,1.0,0.0
cb1,cb1_reward,reward,0,145,145,1,0.0,0.61,0.58,370.0,1.0,0.0,2.0,1.0,0.0,0.0,0.0
cb1,cb1_reward,reward,0,146,146,0,0.0,0.66,0.4,360.0,1.0,0.0,2.0,1.0,0.0,0.0,0.0
cb1,cb1_reward,reward,0,147,147,0,1.0,0.29,0.64,316.0,1.0,0.0,2.0,1.0,0.0,1.0,0.0
cb1,cb1_reward,reward,0,148,148,1,0.0,0.97,0.34,453.0,1.0,0.0,2.0,1.0,0.0,0.0,0.0
cb1,cb1_reward,reward,0,149,149,0,1.0,0.85,0.47,286.0,1.0,0.0,2.0,1.0,0.0,1.0,0.0
cb1,cb1_reward,reward,0,150,150,1,0.0,0.96,0.71,275.0,1.0,0.0,2.0,1.0,0.0,0.0,0.0
cb1,cb1_reward,reward,0,151,151,0,1.0,0.27,0.75,298.0,1.0,0.0,2.0,1.0,0.0,1.0,0.0
cb1,cb1_reward,reward,0,152,152,1,0.0,0.86,0.9,280.0,1.0,0.0,2.0,1.0,0.0,0.0,0.0
cb1,cb1_reward,reward,0,153,153,0,0.0,0.83,0.59,276.0,1.0,0.0,2.0,1.0,0.0,0.0,0.0
cb1,cb1_reward,reward,0,154,154,0,0.0,0.95,0.18,253.0,1.0,0.0,2.0,1.0,0.0,0.0,0.0
cb1,cb1_reward,reward,0,155,155,0,1.0,0.29,0.21,697.0,1.0,0.0,2.0,1.0,0.0,1.0,0.0
cb1,cb1_reward,reward,0,156,156,0,0.0,0.05,0.75,241.0,1.0,0.0,2.0,1.0,0.0,0.0,0.0
cb1,cb1_reward,reward,0,157,157,0,0.0,0.3,0.44,267.0,1.0,0.0,2.0,1.0,0.0,0.0,0.0
cb1,cb1_reward,reward,0,158,158,0,1.0,0.73,0.01,478.0,1.0,0.0,2.0,1.0,0.0,1.0,0.0
cb1,cb1_reward,reward,0,159,159,0,0.0,0.54,0.55,644.0,1.0,0.0,2.0,1.0,0.0,0.0,0.0
cb1,cb1_reward,reward,0,160,160,0,0.0,0.22,0.71,261.0,1.0,0.0,2.0,1.0,0.0,0.0,0.0
cb1,cb1_reward,reward,0,161,161,0,0.0,0.14,0.08,367.0,1.0,0.0,2.0,1.0,0.0,0.0,0.0
cb1,cb1_reward,reward,0,162,162,0,0.0,0.9,0.72,461.0,1.0,0.0,2.0,1.0,0.0,0.0,0.0
cb1,cb1_reward,reward,0,163,163,0,0.0,0.65,0.79,520.0,1.0,0.0,2.0,1.0,0.0,0.0,0.0
cb1,cb1_reward,reward,0,164,164,0,0.0,0.44,0.68,311.0,1.0,0.0,2.0,1.0,0.0,0.0,0.0
cb1,cb1_reward,reward,0,165,165,0,1.0,0.07,0.22,344.0,1.0,0.0,2.0,1.0,0.0,1.0,0.0
cb1,cb1_reward,reward,0,166,166,0,0.0,0.35,0.76,307.0,1.0,0.0,2.0,1.0,0.0,0.0,0.0
cb1,cb1_reward,reward,0,167,167,0,0.0,0.76,0.68,262.0,1.0,0.0,2.0,1.0,0.0,0.0,0.0
cb1,cb1_reward,reward,0,168,168,0,1.0,0.57,0.5,280.0,1.0,0.0,2.0,1.0,0.0,1.0,0.0
cb1,cb1_reward,reward,0,169,169,1,0.0,0.72,0.65,434.0,1.0,0.0,2.0,1.0,0.0,0.0,0.0
cb1,cb1_reward,reward,0,170,170,0,0.0,0.86,0.85,262.0,1.0,0.0,2.0,1.0,0.0,0.0,0.0
cb1,cb1_reward,reward,0,171,171,0,0.0,0.11,0.36,240.0,1.0,0.0,2.0,1.0,0.0,0.0,0.0
cb1,cb1_reward,reward,0,172,172,0,1.0,0.02,0.45,330.0,1.0,0.0,2.0,1.0,0.0,1.0,0.0
cb1,cb1_reward,reward,0,173,173,1,1.0,0.65,0.59,736.0,1.0,0.0,2.0,1.0,0.0,1.0,0.0
cb1,cb1_reward,reward,0,174,174,1,1.0,0.48,0.91,1020.0,1.0,0.0,2.0,1.0,0.0,1.0,0.0
cb1,cb1_reward,reward,0,175,175,1,1.0,0.54,0.8,299.0,1.0,0.0,2.0,1.0,0.0,1.0,0.0
cb1,cb1_reward,reward,0,176,176,1,0.0,0.74,0.27,335.0,1.0,0.0,2.0,1.0,0.0,0.0,0.0
cb1,cb1_reward,reward,0,177,177,0,0.0,0.1,0.99,643.0,1.0,0.0,2.0,1.0,0.0,0.0,0.0
cb1,cb1_reward,reward,0,178,178,0,0.0,0.61,0.18,226.0,1.0,0.0,2.0,1.0,0.0,0.0,0.0
cb1,cb1_reward,reward,0,179,179,0,0.0,0.72,0.63,270.0,1.0,0.0,2.0,1.0,0.0,0.0,0.0
cb100,cb100_reward,reward,0,0,0,1,0.0,0.2,0.01,601.0,0.0,1.0,0.0,1.0,0.0,0.0,1.0
cb100,cb100_reward,reward,0,1,1,0,0.0,0.43,0.12,280.0,0.0,1.0,0.0,1.0,0.0,0.0,0.0
cb100,cb100_reward,reward,0,2,2,0,0.0,0.21,0.9,738.0,0.0,1.0,0.0,1.0,0.0,0.0,0.0
cb100,cb100_reward,reward,0,3,3,0,1.0,0.26,0.62,1539.0,0.0,1.0,0.0,1.0,0.0,1.0,0.0
cb100,cb100_reward,reward,0,4,4,0,0.0,0.95,0.19,1363.0,0.0,1.0,0.0,1.0,0.0,0.0,0.0
cb100,cb100_reward,reward,0,5,5,0,0.0,0.1,0.61,806.0,0.0,1.0,0.0,1.0,0.0,0.0,0.0
cb100,cb100_reward,reward,0,6,6,0,0.0,0.9,0.12,686.0,0.0,1.0,0.0,1.0,0.0,0.0,0.0
cb100,cb100_reward,reward,0,7,7,0,0.0,0.47,0.99,890.0,0.0,1.0,0.0,1.0,0.0,0.0,0.0
cb100,cb100_reward,reward,0,8,8,0,0.0,0.08,0.06,2.0,0.0,1.0,0.0,1.0,0.0,0.0,0.0
cb100,cb100_reward,reward,0,9,9,0,0.0,0.29,0.81,666.0,0.0,1.0,0.0,1.0,0.0,0.0,0.0
cb100,cb100_reward,reward,0,10,10,0,0.0,0.49,0.34,343.0,0.0,1.0,0.0,1.0,0.0,0.0,0.0
cb100,cb100_reward,reward,0,11,11,0,0.0,0.74,0.99,619.0,0.0,1.0,0.0,1.0,0.0,0.0,0.0
cb100,cb100_reward,reward,0,12,12,0,0.0,0.8,0.87,1118.0,0.0,1.0,0.0,1.0,0.0,0.0,0.0
cb100,cb100_reward,reward,0,13,13,0,0.0,0.02,0.28,331.0,0.0,1.0,0.0,1.0,0.0,0.0,0.0
cb100,cb100_reward,reward,0,14,14,0,0.0,0.4,0.81,456.0,0.0,1.0,0.0,1.0,0.0,0.0,0.0
cb100,cb100_reward,reward,0,15,15,0,0.0,0.45,0.78,324.0,0.0,1.0,0.0,1.0,0.0,0.0,0.0
cb100,cb100_reward,reward,0,16,16,0,1.0,0.28,0.28,1520.0,0.0,1.0,0.0,1.0,0.0,1.0,0.0
cb100,cb100_reward,reward,0,17,17,1,1.0,0.27,0.19,440.0,0.0,1.0,0.0,1.0,0.0,1.0,0.0
cb100,cb100_reward,reward,0,18,18,1,1.0,0.32,0.28,1251.0,0.0,1.0,0.0,1.0,0.0,1.0,0.0
cb100,cb100_reward,reward,0,19,19,1,0.0,0.85,0.17,371.0,0.0,1.0,0.0,1.0,0.0,0.0,0.0
cb100,cb100_reward,reward,0,20,20,1,1.0,0.39,0.94,684.0,0.0,1.0,0.0,1.0,0.0,1.0,0.0
cb100,cb100_reward,reward,0,21,21,1,0.0,0.72,0.43,225.0,0.0,1.0,0.0,1.0,0.0,0.0,0.0
cb100,cb100_reward,reward,0,22,22,1,1.0,0.35,0.59,281.0,0.0,1.0,0.0,1.0,0.0,1.0,0.0
cb100,cb100_reward,reward,0,23,23,1,1.0,0.85,0.83,400.0,0.0,1.0,0.0,1.0,0.0,1.0,0.0
cb100,cb100_reward,reward,0,24,24,1,1.0,0.89,0.81,344.0,0.0,1.0,0.0,1.0,0.0,1.0,0.0
cb100,cb100_reward,reward,0,25,25,1,1.0,0.93,0.99,2040.0,0.0,1.0,0.0,1.0,0.0,1.0,0.0
cb100,cb100_reward,reward,0,26,26,1,1.0,0.42,0.5,795.0,0.0,1.0,0.0,1.0,0.0,1.0,0.0
cb100,cb100_reward,reward,0,27,27,1,0.0,0.46,0.73,551.0,0.0,1.0,0.0,1.0,0.0,0.0,0.0
cb100,cb100_reward,reward,0,28,28,1,1.0,0.5,0.51,575.0,0.0,1.0,0.0,1.0,0.0,1.0,0.0
cb100,cb100_reward,reward,0,29,29,1,1.0,0.74,0.03,353.0,0.0,1.0,0.0,1.0,0.0,1.0,0.0
cb100,cb100_reward,reward,0,30,30,1,1.0,0.85,0.32,714.0,0.0,1.0,0.0,1.0,0.0,1.0,0.0
cb100,cb100_reward,reward,0,31,31,1,1.0,0.3,0.68,265.0,0.0,1.0,0.0,1.0,0.0,1.0,0.0
cb100,cb100_reward,reward,0,32,32,1,0.0,0.12,0.25,600.0,0.0,1.0,0.0,1.0,0.0,0.0,0.0
cb100,cb100_reward,reward,0,33,33,1,1.0,0.52,0.46,949.0,0.0,1.0,0.0,1.0,0.0,1.0,0.0
cb100,cb100_reward,reward,0,34,34,1,1.0,0.87,0.12,417.0,0.0,1.0,0.0,1.0,0.0,1.0,0.0
cb100,cb100_reward,reward,0,35,35,1,1.0,0.29,0.76,304.0,0.0,1.0,0.0,1.0,0.0,1.0,0.0
cb100,cb100_reward,reward,0,36,36,1,0.0,0.42,0.82,665.0,0.0,1.0,0.0,1.0,0.0,0.0,0.0
cb100,cb100_reward,reward,0,37,37,1,1.0,0.65,0.39,1182.0,0.0,1.0,0.0,1.0,0.0,1.0,0.0
cb100,cb100_reward,reward,0,38,38,1,1.0,0.15,0.15,959.0,0.0,1.0,0.0,1.0,0.0,1.0,0.0
cb100,cb100_reward,reward,0,39,39,1,0.0,0.42,0.87,216.0,0.0,1.0,0.0,1.0,0.0,0.0,0.0
cb100,cb100_reward,reward,0,40,40,1,0.0,0.26,0.24,1600.0,0.0,1.0,0.0,1.0,0.0,0.0,0.0
cb100,cb100_reward,reward,0,41,41,0,0.0,0.5,0.4,73.0,0.0,1.0,0.0,1.0,0.0,0.0,0.0
cb100,cb100_reward,reward,0,42,42,0,0.0,0.61,0.66,423.0,0.0,1.0,0.0,1.0,0.0,0.0,0.0
cb100,cb100_reward,reward,0,43,43,0,0.0,0.14,0.95,900.0,0.0,1.0,0.0,1.0,0.0,0.0,0.0
cb100,cb100_reward,reward,0,44,44,0,0.0,0.11,0.33,2620.0,0.0,1.0,0.0,1.0,0.0,0.0,0.0
cb100,cb100_reward,reward,0,45,45,1,0.0,0.68,0.4,392.0,0.0,1.0,0.0,1.0,0.0,0.0,0.0
cb100,cb100_reward,reward,0,46,46,0,0.0,0.3,0.45,303.0,0.0,1.0,0.0,1.0,0.0,0.0,0.0
cb100,cb100_reward,reward,0,47,47,0,1.0,0.7,0.52,273.0,0.0,1.0,0.0,1.0,0.0,1.0,0.0
cb100,cb100_reward,reward,0,48,48,0,0.0,0.64,0.79,258.0,0.0,1.0,0.0,1.0,0.0,0.0,0.0
cb100,cb100_reward,reward,0,49,49,0,0.0,0.19,0.67,1554.0,0.0,1.0,0.0,1.0,0.0,0.0,0.0
cb100,cb100_reward,reward,0,50,50,0,0.0,0.22,0.11,855.0,0.0,1.0,0.0,1.0,0.0,0.0,0.0
cb100,cb100_reward,reward,0,51,51,0,1.0,0.21,0.1,600.0,0.0,1.0,0.0,1.0,0.0,1.0,0.0
cb100,cb100_reward,reward,0,52,52,0,0.0,0.13,0.76,183.0,0.0,1.0,0.0,1.0,0.0,0.0,0.0
cb100,cb100_reward,reward,0,53,53,0,0.0,0.61,0.28,532.0,0.0,1.0,0.0,1.0,0.0,0.0,0.0
cb100,cb100_reward,reward,0,54,54,0,1.0,0.74,0.56,498.0,0.0,1.0,0.0,1.0,0.0,1.0,0.0
cb100,cb100_reward,reward,0,55,55,0,0.0,0.34,0.39,280.0,0.0,1.0,0.0,1.0,0.0,0.0,0.0
cb100,cb100_reward,reward,0,56,56,0,0.0,0.18,0.89,341.0,0.0,1.0,0.0,1.0,0.0,0.0,0.0
cb100,cb100_reward,reward,0,57,57,0,0.0,0.78,0.54,415.0,0.0,1.0,0.0,1.0,0.0,0.0,0.0
cb100,cb100_reward,reward,0,58,58,1,0.0,0.87,0.02,279.0,0.0,1.0,0.0,1.0,0.0,0.0,0.0
cb100,cb100_reward,reward,0,59,59,0,0.0,0.17,0.57,299.0,0.0,1.0,0.0,1.0,0.0,0.0,0.0
cb100,cb100_reward,reward,0,60,60,0,1.0,0.35,0.22,1501.0,0.0,1.0,1.0,1.0,0.0,1.0,0.0
cb100,cb100_reward,reward,0,61,61,0,0.0,0.21,0.88,0.0,0.0,1.0,1.0,1.0,0.0,0.0,0.0
cb100,cb100_reward,reward,0,62,62,0,1.0,0.46,0.19,0.0,0.0,1.0,1.0,1.0,0.0,1.0,0.0
cb100,cb100_reward,reward,0,63,63,0,1.0,0.06,0.53,882.0,0.0,1.0,1.0,1.0,0.0,1.0,0.0
cb100,cb100_reward,reward,0,64,64,0,1.0,0.69,0.55,550.0,0.0,1.0,1.0,1.0,0.0,1.0,0.0
cb100,cb100_reward,reward,0,65,65,1,1.0,0.81,0.89,334.0,0.0,1.0,1.0,1.0,0.0,1.0,0.0
cb100,cb100_reward,reward,0,66,66,1,1.0,0.83,0.54,1733.0,0.0,1.0,1.0,1.0,0.0,1.0,0.0
cb100,cb100_reward,reward,0,67,67,1,1.0,0.39,0.7,465.0,0.0,1.0,1.0,1.0,0.0,1.0,0.0
cb100,cb100_reward,reward,0,68,68,1,1.0,0.5,0.36,532.0,0.0,1.0,1.0,1.0,0.0,1.0,0.0
cb100,cb100_reward,reward,0,69,69,1,1.0,0.8,0.17,519.0,0.0,1.0,1.0,1.0,0.0,1.0,0.0
cb100,cb100_reward,reward,0,70,70,1,1.0,0.44,0.3,2380.0,0.0,1.0,1.0,1.0,0.0,1.0,0.0
cb100,cb100_reward,reward,0,71,71,1,1.0,0.22,0.59,2460.0,0.0,1.0,1.0,1.0,0.0,1.0,0.0
cb100,cb100_reward,reward,0,72,72,1,1.0,0.75,0.65,2260.0,0.0,1.0,1.0,1.0,0.0,1.0,0.0
cb100,cb100_reward,reward,0,73,73,1,1.0,0.34,0.71,0.0,0.0,1.0,1.0,1.0,0.0,1.0,0.0
cb100,cb100_reward,reward,0,74,74,1,0.0,0.78,0.53,502.0,0.0,1.0,1.0,1.0,0.0,0.0,0.0
cb100,cb100_reward,reward,0,75,75,1,1.0,0.59,0.83,92.0,0.0,1.0,1.0,1.0,0.0,1.0,0.0
cb100,cb100_reward,reward,0,76,76,1,0.0,0.71,0.21,263.0,0.0,1.0,1.0,1.0,0.0,0.0,0.0
cb100,cb100_reward,reward,0,77,77,0,1.0,0.78,0.78,742.0,0.0,1.0,1.0,1.0,0.0,1.0,0.0
cb100,cb100_reward,reward,0,78,78,0,1.0,0.47,0.83,880.0,0.0,1.0,1.0,1.0,0.0,1.0,0.0
cb100,cb100_reward,reward,0,79,79,1,1.0,0.59,0.47,293.0,0.0,1.0,1.0,1.0,0.0,1.0,0.0
cb100,cb100_reward,reward,0,80,80,0,0.0,0.02,0.19,1434.0,0.0,1.0,1.0,1.0,0.0,0.0,0.0
cb100,cb100_reward,reward,0,81,81,0,0.0,0.04,0.36,1880.0,0.0,1.0,1.0,1.0,0.0,0.0,0.0
cb100,cb100_reward,reward,0,82,82,1,0.0,0.36,0.07,464.0,0.0,1.0,1.0,1.0,0.0,0.0,0.0
cb100,cb100_reward,reward,0,83,83,0,0.0,0.72,0.62,572.0,0.0,1.0,1.0,1.0,0.0,0.0,0.0
cb100,cb100_reward,reward,0,84,84,0,1.0,0.32,0.4,500.0,0.0,1.0,1.0,1.0,0.0,1.0,0.0
cb100,cb100_reward,reward,0,85,85,0,0.0,0.62,0.35,480.0,0.0,1.0,1.0,1.0,0.0,0.0,0.0
cb100,cb100_reward,reward,0,86,86,0,0.0,0.91,0.9,343.0,0.0,1.0,1.0,1.0,0.0,0.0,0.0
cb100,cb100_reward,reward,0,87,87,0,0.0,0.17,0.59,1133.0,0.0,1.0,1.0,1.0,0.0,0.0,0.0
cb100,cb100_reward,reward,0,88,88,1,0.0,0.32,0.39,3191.0,0.0,1.0,1.0,1.0,0.0,0.0,0.0
cb100,cb100_reward,reward,0,89,89,0,0.0,0.77,0.79,299.0,0.0,1.0,1.0,1.0,0.0,0.0,0.0
cb100,cb100_reward,reward,0,90,90,1,1.0,0.61,0.33,1355.0,1.0,0.0,1.0,1.0,0.0,1.0,0.0
cb100,cb100_reward,reward,0,91,91,1,1.0,0.14,0.48,299.0,1.0,0.0,1.0,1.0,0.0,1.0,0.0
cb100,cb100_reward,reward,0,92,92,1,1.0,0.9,0.19,240.0,1.0,0.0,1.0,1.0,0.0,1.0,0.0
cb100,cb100_reward,reward,0,93,93,1,1.0,0.43,0.34,552.0,1.0,0.0,1.0,1.0,0.0,1.0,0.0
cb100,cb100_reward,reward,0,94,94,1,1.0,0.87,0.51,850.0,1.0,0.0,1.0,1.0,0.0,1.0,0.0
cb100,cb100_reward,reward,0,95,95,1,1.0,0.55,0.22,280.0,1.0,0.0,1.0,1.0,0.0,1.0,0.0
cb100,cb100_reward,reward,0,96,96,1,1.0,0.62,0.95,438.0,1.0,0.0,1.0,1.0,0.0,1.0,0.0
cb100,cb100_reward,reward,0,97,97,1,1.0,0.07,0.21,1023.0,1.0,0.0,1.0,1.0,0.0,1.0,0.0
cb100,cb100_reward,reward,0,98,98,1,1.0,0.05,0.55,302.0,1.0,0.0,1.0,1.0,0.0,1.0,0.0
cb100,cb100_reward,reward,0,99,99,1,1.0,0.24,0.91,452.0,1.0,0.0,1.0,1.0,0.0,1.0,0.0
cb100,cb100_reward,reward,0,100,100,1,1.0,0.12,0.65,697.0,1.0,0.0,1.0,1.0,0.0,1.0,0.0
cb100,cb100_reward,reward,0,101,101,1,1.0,0.69,0.3,424.0,1.0,0.0,1.0,1.0,0.0,1.0,0.0
cb100,cb100_reward,reward,0,102,102,1,0.0,0.3,0.27,278.0,1.0,0.0,1.0,1.0,0.0,0.0,0.0
cb100,cb100_reward,reward,0,103,103,1,1.0,0.94,0.42,446.0,1.0,0.0,1.0,1.0,0.0,1.0,0.0
cb100,cb100_reward,reward,0,104,104,1,1.0,0.97,0.33,776.0,1.0,0.0,1.0,1.0,0.0,1.0,0.0
cb100,cb100_reward,reward,0,105,105,1,1.0,0.7,0.51,757.0,1.0,0.0,1.0,1.0,0.0,1.0,0.0
cb100,cb100_reward,reward,0,106,106,1,1.0,0.84,0.71,280.0,1.0,0.0,1.0,1.0,0.0,1.0,0.0
cb100,cb100_reward,reward,0,107,107,1,1.0,0.09,0.29,1120.0,1.0,0.0,1.0,1.0,0.0,1.0,0.0
cb100,cb100_reward,reward,0,108,108,1,1.0,0.18,0.52,722.0,1.0,0.0,1.0,1.0,0.0,1.0,0.0
cb100,cb100_reward,reward,0,109,109,1,1.0,0.88,0.24,351.0,1.0,0.0,1.0,1.0,0.0,1.0,0.0
cb100,cb100_reward,reward,0,110,110,1,1.0,0.88,0.38,1155.0,1.0,0.0,1.0,1.0,0.0,1.0,0.0
cb100,cb100_reward,reward,0,111,111,1,1.0,0.59,0.2,352.0,1.0,0.0,1.0,1.0,0.0,1.0,0.0
cb100,cb100_reward,reward,0,112,112,1,0.0,0.84,0.1,380.0,1.0,0.0,1.0,1.0,0.0,0.0,0.0
cb100,cb100_reward,reward,0,113,113,1,1.0,0.73,0.69,460.0,1.0,0.0,1.0,1.0,0.0,1.0,0.0
cb100,cb100_reward,reward,0,114,114,1,1.0,1.0,0.18,953.0,1.0,0.0,1.0,1.0,0.0,1.0,0.0
cb100,cb100_reward,reward,0,115,115,1,0.0,0.57,0.86,1468.0,1.0,0.0,1.0,1.0,0.0,0.0,0.0
cb100,cb100_reward,reward,0,116,116,0,1.0,0.56,0.41,1230.0,1.0,0.0,1.0,1.0,0.0,1.0,0.0
cb100,cb100_reward,reward,0,117,117,1,1.0,0.84,0.77,40.0,1.0,0.0,1.0,1.0,0.0,1.0,0.0
cb100,cb100_reward,reward,0,118,118,0,0.0,0.16,0.99,2653.0,1.0,0.0,1.0,1.0,0.0,0.0,0.0
cb100,cb100_reward,reward,0,119,119,0,1.0,0.94,0.53,2097.0,1.0,0.0,1.0,1.0,0.0,1.0,0.0
cb100,cb100_reward,reward,0,120,120,1,1.0,0.34,0.72,2085.0,1.0,0.0,2.0,1.0,0.0,1.0,0.0
cb100,cb100_reward,reward,0,121,121,1,1.0,0.56,0.76,177.0,1.0,0.0,2.0,1.0,0.0,1.0,0.0
cb100,cb100_reward,reward,0,122,122,0,1.0,0.25,0.92,2023.0,1.0,0.0,2.0,1.0,0.0,1.0,0.0
cb100,cb100_reward,reward,0,123,123,1,0.0,0.61,0.41,156.0,1.0,0.0,2.0,1.0,0.0,0.0,0.0
cb100,cb100_reward,reward,0,124,124,0,1.0,0.8,0.97,1300.0,1.0,0.0,2.0,1.0,0.0,1.0,0.0
cb100,cb100_reward,reward,0,125,125,1,1.0,0.25,0.75,2018.0,1.0,0.0,2.0,1.0,0.0,1.0,0.0
cb100,cb100_reward,reward,0,126,126,1,1.0,0.43,0.91,2419.0,1.0,0.0,2.0,1.0,0.0,1.0,0.0
cb100,cb100_reward,reward,0,127,127,1,1.0,0.22,0.15,340.0,1.0,0.0,2.0,1.0,0.0,1.0,0.0
cb100,cb100_reward,reward,0,128,128,1,0.0,0.64,0.19,756.0,1.0,0.0,2.0,1.0,0.0,0.0,0.0
cb100,cb100_reward,reward,0,129,129,1,1.0,0.15,0.09,673.0,1.0,0.0,2.0,1.0,0.0,1.0,0.0
cb100,cb100_reward,reward,0,130,130,1,0.0,0.39,0.58,273.0,1.0,0.0,2.0,1.0,0.0,0.0,0.0
cb100,cb100_reward,reward,0,131,131,0,1.0,0.32,0.85,481.0,1.0,0.0,2.0,1.0,0.0,1.0,0.0
cb100,cb100_reward,reward,0,132,132,1,1.0,0.51,0.94,241.0,1.0,0.0,2.0,1.0,0.0,1.0,0.0
cb100,cb100_reward,reward,0,133,133,1,1.0,0.79,0.33,983.0,1.0,0.0,2.0,1.0,0.0,1.0,0.0
cb100,cb100_reward,reward,0,134,134,1,1.0,0.5,0.51,0.0,1.0,0.0,2.0,1.0,0.0,1.0,0.0
cb100,cb100_reward,reward,0,135,135,0,0.0,0.2,0.63,561.0,1.0,0.0,2.0,1.0,0.0,0.0,0.0
cb100,cb100_reward,reward,0,136,136,1,1.0,0.9,0.51,461.0,1.0,0.0,2.0,1.0,0.0,1.0,0.0
cb100,cb100_reward,reward,0,137,137,1,1.0,0.73,0.64,301.0,1.0,0.0,2.0,1.0,0.0,1.0,0.0
cb100,cb100_reward,reward,0,138,138,1,0.0,0.7,0.47,771.0,1.0,0.0,2.0,1.0,0.0,0.0,0.0
cb100,cb100_reward,reward,0,139,139,1,1.0,0.77,0.52,283.0,1.0,0.0,2.0,1.0,0.0,1.0,0.0
cb100,cb100_reward,reward,0,140,140,1,1.0,0.25,0.58,415.0,1.0,0.0,2.0,1.0,0.0,1.0,0.0
cb100,cb100_reward,reward,0,141,141,1,1.0,0.82,0.93,327.0,1.0,0.0,2.0,1.0,0.0,1.0,0.0
cb100,cb100_reward,reward,0,142,142,1,0.0,0.91,0.43,992.0,1.0,0.0,2.0,1.0,0.0,0.0,0.0
cb100,cb100_reward,reward,0,143,143,1,1.0,0.42,0.17,452.0,1.0,0.0,2.0,1.0,0.0,1.0,0.0
cb100,cb100_reward,reward,0,144,144,1,0.0,0.35,0.2,624.0,1.0,0.0,2.0,1.0,0.0,0.0,0.0
cb100,cb100_reward,reward,0,145,145,1,1.0,0.58,0.61,420.0,1.0,0.0,2.0,1.0,0.0,1.0,0.0
cb100,cb100_reward,reward,0,146,146,1,1.0,0.4,0.66,476.0,1.0,0.0,2.0,1.0,0.0,1.0,0.0
cb100,cb100_reward,reward,0,147,147,1,0.0,0.64,0.29,620.0,1.0,0.0,2.0,1.0,0.0,0.0,0.0
cb100,cb100_reward,reward,0,148,148,0,1.0,0.34,0.97,660.0,1.0,0.0,2.0,1.0,0.0,1.0,0.0
cb100,cb100_reward,reward,0,149,149,1,0.0,0.47,0.85,920.0,1.0,0.0,2.0,1.0,0.0,0.0,0.0
cb100,cb100_reward,reward,0,150,150,0,1.0,0.71,0.96,361.0,1.0,0.0,2.0,1.0,0.0,1.0,0.0
cb100,cb100_reward,reward,0,151,151,1,0.0,0.75,0.27,742.0,1.0,0.0,2.0,1.0,0.0,0.0,0.0
cb100,cb100_reward,reward,0,152,152,1,1.0,0.9,0.86,1399.0,1.0,0.0,2.0,1.0,0.0,1.0,0.0
cb100,cb100_reward,reward,0,153,153,0,1.0,0.59,0.83,409.0,1.0,0.0,2.0,1.0,0.0,1.0,0.0
cb100,cb100_reward,reward,0,154,154,0,1.0,0.18,0.95,325.0,1.0,0.0,2.0,1.0,0.0,1.0,0.0
cb100,cb100_reward,reward,0,155,155,1,0.0,0.21,0.29,348.0,1.0,0.0,2.0,1.0,0.0,0.0,0.0
cb100,cb100_reward,reward,0,156,156,1,1.0,0.75,0.05,741.0,1.0,0.0,2.0,1.0,0.0,1.0,0.0
cb100,cb100_reward,reward,0,157,157,1,1.0,0.44,0.3,400.0,1.0,0.0,2.0,1.0,0.0,1.0,0.0
cb100,cb100_reward,reward,0,158,158,0,0.0,0.01,0.73,140.0,1.0,0.0,2.0,1.0,0.0,0.0,0.0
cb100,cb100_reward,reward,0,159,159,1,1.0,0.55,0.54,440.0,1.0,0.0,2.0,1.0,0.0,1.0,0.0
cb100,cb100_reward,reward,0,160,160,1,1.0,0.71,0.22,1233.0,1.0,0.0,2.0,1.0,0.0,1.0,0.0
cb100,cb100_reward,reward,0,161,161,1,1.0,0.08,0.14,1587.0,1.0,0.0,2.0,1.0,0.0,1.0,0.0
cb100,cb100_reward,reward,0,162,162,1,1.0,0.72,0.9,746.0,1.0,0.0,2.0,1.0,0.0,1.0,0.0
cb100,cb100_reward,reward,0,163,163,1,1.0,0.79,0.65,3235.0,1.0,0.0,2.0,1.0,0.0,1.0,0.0
cb100,cb100_reward,reward,0,164,164,1,1.0,0.68,0.44,2112.0,1.0,0.0,2.0,1.0,0.0,1.0,0.0
cb100,cb100_reward,reward,0,165,165,1,0.0,0.22,0.07,1332.0,1.0,0.0,2.0,1.0,0.0,0.0,0.0
cb100,cb100_reward,reward,0,166,166,1,1.0,0.76,0.35,481.0,1.0,0.0,2.0,1.0,0.0,1.0,0.0
cb100,cb100_reward,reward,0,167,167,1,1.0,0.68,0.76,1240.0,1.0,0.0,2.0,1.0,0.0,1.0,0.0
cb100,cb100_reward,reward,0,168,168,1,0.0,0.5,0.57,1264.0,1.0,0.0,2.0,1.0,0.0,0.0,0.0
cb100,cb100_reward,reward,0,169,169,1,1.0,0.65,0.72,863.0,1.0,0.0,2.0,1.0,0.0,1.0,0.0
cb100,cb100_reward,reward,0,170,170,1,1.0,0.85,0.86,1674.0,1.0,0.0,2.0,1.0,0.0,1.0,0.0
cb100,cb100_reward,reward,0,171,171,1,1.0,0.36,0.11,348.0,1.0,0.0,2.0,1.0,0.0,1.0,0.0
cb100,cb100_reward,reward,0,172,172,1,0.0,0.45,0.02,864.0,1.0,0.0,2.0,1.0,0.0,0.0,0.0
cb100,cb100_reward,reward,0,173,173,1,0.0,0.59,0.65,176.0,1.0,0.0,2.0,1.0,0.0,0.0,0.0
cb100,cb100_reward,reward,0,174,174,1,0.0,0.91,0.48,400.0,1.0,0.0,2.0,1.0,0.0,0.0,0.0
cb100,cb100_reward,reward,0,175,175,0,0.0,0.8,0.54,800.0,1.0,0.0,2.0,1.0,0.0,0.0,0.0
cb100,cb100_reward,reward,0,176,176,0,1.0,0.27,0.74,100.0,1.0,0.0,2.0,1.0,0.0,1.0,0.0
cb100,cb100_reward,reward,0,177,177,1,1.0,0.99,0.1,341.0,1.0,0.0,2.0,1.0,0.0,1.0,0.0
cb100,cb100_reward,reward,0,178,178,0,1.0,0.18,0.61,338.0,1.0,0.0,2.0,1.0,0.0,1.0,0.0
cb100,cb100_reward,reward,0,179,179,1,1.0,0.63,0.72,924.0,1.0,0.0,2.0,1.0,0.0,1.0,0.0
cb100,cb100_pain,pain,1,0,10000,1,0.0,-0.1,-0.23,201.0,0.0,1.0,0.0,0.0,1.0,1.0,1.0
cb100,cb100_pain,pain,1,1,10001,0,0.0,-0.97,-0.45,1581.0,0.0,1.0,0.0,0.0,1.0,1.0,0.0
cb100,cb100_pain,pain,1,2,10002,1,0.0,-0.62,-0.54,1800.0,0.0,1.0,0.0,0.0,1.0,1.0,0.0
cb100,cb100_pain,pain,1,3,10003,1,1.0,-0.16,-0.99,879.0,0.0,1.0,0.0,0.0,1.0,0.0,0.0
cb100,cb100_pain,pain,1,4,10004,1,0.0,-0.4,-0.72,443.0,0.0,1.0,0.0,0.0,1.0,1.0,0.0
cb100,cb100_pain,pain,1,5,10005,1,0.0,-0.88,-0.98,281.0,0.0,1.0,0.0,0.0,1.0,1.0,0.0
cb100,cb100_pain,pain,1,6,10006,0,0.0,-0.54,-0.06,1091.0,0.0,1.0,0.0,0.0,1.0,1.0,0.0
cb100,cb100_pain,pain,1,7,10007,1,0.0,-0.55,-0.64,1046.0,0.0,1.0,0.0,0.0,1.0,1.0,0.0
cb100,cb100_pain,pain,1,8,10008,1,0.0,-0.45,-0.96,1528.0,0.0,1.0,0.0,0.0,1.0,1.0,0.0
cb100,cb100_pain,pain,1,9,10009,1,0.0,-0.19,-0.28,139.0,0.0,1.0,0.0,0.0,1.0,1.0,0.0
cb100,cb100_pain,pain,1,10,10010,1,0.0,-0.26,-0.95,359.0,0.0,1.0,0.0,0.0,1.0,1.0,0.0
cb100,cb100_pain,pain,1,11,10011,1,0.0,-0.29,-0.9,420.0,0.0,1.0,0.0,0.0,1.0,1.0,0.0
cb100,cb100_pain,pain,1,12,10012,1,0.0,-0.53,-0.2,2180.0,0.0,1.0,0.0,0.0,1.0,1.0,0.0
cb100,cb100_pain,pain,1,13,10013,1,0.0,-0.56,-0.74,1442.0,0.0,1.0,0.0,0.0,1.0,1.0,0.0
cb100,cb100_pain,pain,1,14,10014,1,0.0,-0.42,-0.18,1936.0,0.0,1.0,0.0,0.0,1.0,1.0,0.0
cb100,cb100_pain,pain,1,15,10015,0,0.0,-0.91,-0.11,2017.0,0.0,1.0,0.0,0.0,1.0,1.0,0.0
cb100,cb100_pain,pain,1,16,10016,1,1.0,-0.31,-0.32,814.0,0.0,1.0,0.0,0.0,1.0,0.0,0.0
cb100,cb100_pain,pain,1,17,10017,1,1.0,-0.65,-0.36,709.0,0.0,1.0,0.0,0.0,1.0,0.0,0.0
cb100,cb100_pain,pain,1,18,10018,0,1.0,-0.3,-0.4,132.0,0.0,1.0,0.0,0.0,1.0,0.0,0.0
cb100,cb100_pain,pain,1,19,10019,0,0.0,-0.26,-0.29,279.0,0.0,1.0,0.0,0.0,1.0,1.0,0.0
cb100,cb100_pain,pain,1,20,10020,0,1.0,-0.36,-0.32,799.0,0.0,1.0,0.0,0.0,1.0,0.0,0.0
cb100,cb100_pain,pain,1,21,10021,0,0.0,-0.81,-0.72,278.0,0.0,1.0,0.0,0.0,1.0,1.0,0.0
cb100,cb100_pain,pain,1,22,10022,1,1.0,-0.54,-0.95,1860.0,0.0,1.0,0.0,0.0,1.0,0.0,0.0
cb100,cb100_pain,pain,1,23,10023,0,1.0,-0.59,-0.4,616.0,0.0,1.0,0.0,0.0,1.0,0.0,0.0
cb100,cb100_pain,pain,1,24,10024,0,1.0,-0.24,-0.29,1200.0,0.0,1.0,0.0,0.0,1.0,0.0,0.0
cb100,cb100_pain,pain,1,25,10025,0,1.0,-0.51,-0.6,341.0,0.0,1.0,0.0,0.0,1.0,0.0,0.0
cb100,cb100_pain,pain,1,27,10027,0,0.0,-0.98,-0.78,348.0,0.0,1.0,0.0,0.0,1.0,1.0,0.0
cb100,cb100_pain,pain,1,28,10028,0,1.0,-0.51,-0.56,985.0,0.0,1.0,0.0,0.0,1.0,0.0,0.0
cb100,cb100_pain,pain,1,29,10029,0,1.0,-0.2,-0.05,1043.0,0.0,1.0,0.0,0.0,1.0,0.0,0.0
cb100,cb100_pain,pain,1,30,10030,1,1.0,-0.02,-0.67,1280.0,0.0,1.0,0.0,0.0,1.0,0.0,0.0
cb100,cb100_pain,pain,1,31,10031,0,1.0,-0.84,-0.85,940.0,0.0,1.0,0.0,0.0,1.0,0.0,0.0
cb100,cb100_pain,pain,1,32,10032,0,0.0,-0.49,-0.07,348.0,0.0,1.0,0.0,0.0,1.0,1.0,0.0
cb100,cb100_pain,pain,1,33,10033,0,1.0,-0.47,-0.37,403.0,0.0,1.0,0.0,0.0,1.0,0.0,0.0
cb100,cb100_pain,pain,1,34,10034,0,1.0,-0.91,-0.27,660.0,0.0,1.0,0.0,0.0,1.0,0.0,0.0
cb100,cb100_pain,pain,1,35,10035,0,1.0,-0.42,-0.44,359.0,0.0,1.0,0.0,0.0,1.0,0.0,0.0
cb100,cb100_pain,pain,1,36,10036,0,0.0,-0.55,-0.31,1720.0,0.0,1.0,0.0,0.0,1.0,1.0,0.0
cb100,cb100_pain,pain,1,37,10037,1,1.0,-0.7,-0.97,2065.0,0.0,1.0,0.0,0.0,1.0,0.0,0.0
cb100,cb100_pain,pain,1,38,10038,1,1.0,-0.09,-0.14,2098.0,0.0,1.0,0.0,0.0,1.0,0.0,0.0
cb100,cb100_pain,pain,1,39,10039,0,0.0,-0.51,-0.23,1197.0,0.0,1.0,0.0,0.0,1.0,1.0,0.0
cb100,cb100_pain,pain,1,40,10040,1,0.0,-0.79,-0.89,2214.0,0.0,1.0,0.0,0.0,1.0,1.0,0.0
cb100,cb100_pain,pain,1,41,10041,0,0.0,-0.86,-0.83,437.0,0.0,1.0,0.0,0.0,1.0,1.0,0.0
cb100,cb100_pain,pain,1,42,10042,0,0.0,-0.62,-0.4,1279.0,0.0,1.0,0.0,0.0,1.0,1.0,0.0
cb100,cb100_pain,pain,1,43,10043,1,0.0,-0.23,-0.36,400.0,0.0,1.0,0.0,0.0,1.0,1.0,0.0
cb100,cb100_pain,pain,1,44,10044,1,0.0,-0.61,-0.65,980.0,0.0,1.0,0.0,0.0,1.0,1.0,0.0
cb100,cb100_pain,pain,1,45,10045,1,0.0,-0.67,-0.74,2.0,0.0,1.0,0.0,0.0,1.0,1.0,0.0
cb100,cb100_pain,pain,1,46,10046,1,0.0,-0.41,-0.73,329.0,0.0,1.0,0.0,0.0,1.0,1.0,0.0
cb100,cb100_pain,pain,1,47,10047,1,1.0,-0.54,-0.96,716.0,0.0,1.0,0.0,0.0,1.0,0.0,0.0
cb100,cb100_pain,pain,1,48,10048,1,0.0,-0.88,-0.86,1340.0,0.0,1.0,0.0,0.0,1.0,1.0,0.0
cb100,cb100_pain,pain,1,49,10049,1,0.0,-0.66,-0.43,1867.0,0.0,1.0,0.0,0.0,1.0,1.0,0.0
cb100,cb100_pain,pain,1,50,10050,1,0.0,-0.79,-0.72,360.0,0.0,1.0,0.0,0.0,1.0,1.0,0.0
cb100,cb100_pain,pain,1,51,10051,1,1.0,-0.13,-0.71,280.0,0.0,1.0,0.0,0.0,1.0,0.0,0.0
cb100,cb100_pain,pain,1,52,10052,1,0.0,-0.53,-0.78,0.0,0.0,1.0,0.0,0.0,1.0,1.0,0.0
cb100,cb100_pain,pain,1,53,10053,0,0.0,-0.9,-0.57,2524.0,0.0,1.0,0.0,0.0,1.0,1.0,0.0
cb100,cb100_pain,pain,1,54,10054,1,1.0,-0.12,-0.03,1474.0,0.0,1.0,0.0,0.0,1.0,0.0,0.0
cb100,cb100_pain,pain,1,55,10055,0,0.0,-0.64,-0.02,324.0,0.0,1.0,0.0,0.0,1.0,1.0,0.0
cb100,cb100_pain,pain,1,56,10056,1,0.0,-0.09,-0.99,440.0,0.0,1.0,0.0,0.0,1.0,1.0,0.0
cb100,cb100_pain,pain,1,57,10057,0,0.0,-0.42,-0.21,2695.0,0.0,1.0,0.0,0.0,1.0,1.0,0.0
cb100,cb100_pain,pain,1,58,10058,1,0.0,-0.72,-0.83,321.0,0.0,1.0,0.0,0.0,1.0,1.0,0.0
cb100,cb100_pain,pain,1,59,10059,1,0.0,-0.11,-0.37,268.0,0.0,1.0,0.0,0.0,1.0,1.0,0.0
cb100,cb100_pain,pain,1,60,10060,1,1.0,-0.81,-0.67,360.0,0.0,1.0,1.0,0.0,1.0,0.0,0.0
cb100,cb100_pain,pain,1,61,10061,1,0.0,-0.14,-0.12,405.0,0.0,1.0,1.0,0.0,1.0,1.0,0.0
cb100,cb100_pain,pain,1,62,10062,1,1.0,-0.9,-0.78,2238.0,0.0,1.0,1.0,0.0,1.0,0.0,0.0
cb100,cb100_pain,pain,1,63,10063,1,1.0,-0.53,-0.46,1581.0,0.0,1.0,1.0,0.0,1.0,0.0,0.0
cb100,cb100_pain,pain,1,64,10064,0,1.0,-0.42,-0.3,0.0,0.0,1.0,1.0,0.0,1.0,0.0,0.0
cb100,cb100_pain,pain,1,65,10065,0,1.0,-0.65,-0.36,425.0,0.0,1.0,1.0,0.0,1.0,0.0,0.0
cb100,cb100_pain,pain,1,66,10066,0,1.0,-0.49,-0.49,616.0,0.0,1.0,1.0,0.0,1.0,0.0,0.0
cb100,cb100_pain,pain,1,67,10067,1,1.0,-0.1,-0.44,2115.0,0.0,1.0,1.0,0.0,1.0,0.0,0.0
cb100,cb100_pain,pain,1,68,10068,0,1.0,-0.64,-0.7,1263.0,0.0,1.0,1.0,0.0,1.0,0.0,0.0
cb100,cb100_pain,pain,1,69,10069,0,1.0,-0.95,-0.68,320.0,0.0,1.0,1.0,0.0,1.0,0.0,0.0
cb100,cb100_pain,pain,1,70,10070,0,1.0,-0.48,-0.02,281.0,0.0,1.0,1.0,0.0,1.0,0.0,0.0
cb100,cb100_pain,pain,1,71,10071,0,1.0,-0.61,-0.09,645.0,0.0,1.0,1.0,0.0,1.0,0.0,0.0
cb100,cb100_pain,pain,1,72,10072,0,1.0,-0.6,-0.47,1557.0,0.0,1.0,1.0,0.0,1.0,0.0,0.0
cb100,cb100_pain,pain,1,73,10073,1,1.0,-0.23,-0.78,2343.0,0.0,1.0,1.0,0.0,1.0,0.0,0.0
cb100,cb100_pain,pain,1,74,10074,0,0.0,-0.67,-0.82,3380.0,0.0,1.0,1.0,0.0,1.0,1.0,0.0
cb100,cb100_pain,pain,1,75,10075,1,1.0,-0.16,-0.64,1918.0,0.0,1.0,1.0,0.0,1.0,0.0,0.0
cb100,cb100_pain,pain,1,76,10076,0,0.0,-0.78,-0.37,360.0,0.0,1.0,1.0,0.0,1.0,1.0,0.0
cb100,cb100_pain,pain,1,77,10077,1,1.0,-0.22,-0.89,1972.0,0.0,1.0,1.0,0.0,1.0,0.0,0.0
cb100,cb100_pain,pain,1,78,10078,0,1.0,-0.18,-0.26,1116.0,0.0,1.0,1.0,0.0,1.0,0.0,0.0
cb100,cb100_pain,pain,1,79,10079,0,1.0,-0.73,-0.08,341.0,0.0,1.0,1.0,0.0,1.0,0.0,0.0
cb100,cb100_pain,pain,1,80,10080,0,0.0,-0.66,-0.73,986.0,0.0,1.0,1.0,0.0,1.0,1.0,0.0
cb100,cb100_pain,pain,1,81,10081,0,0.0,-0.17,-0.17,1860.0,0.0,1.0,1.0,0.0,1.0,1.0,0.0
cb100,cb100_pain,pain,1,82,10082,1,0.0,-0.63,-0.9,1323.0,0.0,1.0,1.0,0.0,1.0,1.0,0.0
cb100,cb100_pain,pain,1,83,10083,1,0.0,-0.66,-0.77,1476.0,0.0,1.0,1.0,0.0,1.0,1.0,0.0
cb100,cb100_pain,pain,1,84,10084,1,1.0,-0.27,-0.35,960.0,0.0,1.0,1.0,0.0,1.0,0.0,0.0
cb100,cb100_pain,pain,1,85,10085,1,0.0,-0.15,-0.04,1653.0,0.0,1.0,1.0,0.0,1.0,1.0,0.0
cb100,cb100_pain,pain,1,86,10086,1,0.0,-0.9,-0.96,1020.0,0.0,1.0,1.0,0.0,1.0,1.0,0.0
cb100,cb100_pain,pain,1,87,10087,1,0.0,-0.11,-0.18,550.0,0.0,1.0,1.0,0.0,1.0,1.0,0.0
cb100,cb100_pain,pain,1,88,10088,1,0.0,-0.2,-0.53,1170.0,0.0,1.0,1.0,0.0,1.0,1.0,0.0
cb100,cb100_pain,pain,1,89,10089,1,0.0,-0.37,-0.85,1465.0,0.0,1.0,1.0,0.0,1.0,1.0,0.0
cb100,cb100_pain,pain,1,90,10090,1,1.0,-0.46,-0.38,25.0,1.0,0.0,1.0,0.0,1.0,0.0,0.0
cb100,cb100_pain,pain,1,91,10091,0,1.0,-0.24,-0.18,145.0,1.0,0.0,1.0,0.0,1.0,0.0,0.0
cb100,cb100_pain,pain,1,92,10092,0,1.0,-0.78,-0.82,2377.0,1.0,0.0,1.0,0.0,1.0,0.0,0.0
cb100,cb100_pain,pain,1,93,10093,0,1.0,-0.54,-0.59,960.0,1.0,0.0,1.0,0.0,1.0,0.0,0.0
cb100,cb100_pain,pain,1,94,10094,0,1.0,-0.33,-0.36,386.0,1.0,0.0,1.0,0.0,1.0,0.0,0.0
cb100,cb100_pain,pain,1,95,10095,0,1.0,-0.56,-0.49,331.0,1.0,0.0,1.0,0.0,1.0,0.0,0.0
cb100,cb100_pain,pain,1,96,10096,0,1.0,-0.83,-0.26,285.0,1.0,0.0,1.0,0.0,1.0,0.0,0.0
cb100,cb100_pain,pain,1,97,10097,0,1.0,-0.81,-0.38,276.0,1.0,0.0,1.0,0.0,1.0,0.0,0.0
cb100,cb100_pain,pain,1,98,10098,0,1.0,-0.23,-0.12,249.0,1.0,0.0,1.0,0.0,1.0,0.0,0.0
cb100,cb100_pain,pain,1,99,10099,1,1.0,-0.07,-0.87,2280.0,1.0,0.0,1.0,0.0,1.0,0.0,0.0
cb100,cb100_pain,pain,1,100,10100,0,1.0,-0.5,-0.43,303.0,1.0,0.0,1.0,0.0,1.0,0.0,0.0
cb100,cb100_pain,pain,1,101,10101,0,1.0,-0.47,-0.5,254.0,1.0,0.0,1.0,0.0,1.0,0.0,0.0
cb100,cb100_pain,pain,1,102,10102,0,0.0,-0.35,-0.41,300.0,1.0,0.0,1.0,0.0,1.0,1.0,0.0
cb100,cb100_pain,pain,1,103,10103,0,1.0,-0.87,-0.09,1140.0,1.0,0.0,1.0,0.0,1.0,0.0,0.0
cb100,cb100_pain,pain,1,104,10104,0,1.0,-0.58,-0.2,737.0,1.0,0.0,1.0,0.0,1.0,0.0,0.0
cb100,cb100_pain,pain,1,105,10105,1,1.0,-0.31,-0.88,316.0,1.0,0.0,1.0,0.0,1.0,0.0,0.0
cb100,cb100_pain,pain,1,106,10106,0,1.0,-0.44,-0.56,1290.0,1.0,0.0,1.0,0.0,1.0,0.0,0.0
cb100,cb100_pain,pain,1,107,10107,0,1.0,-0.85,-0.31,420.0,1.0,0.0,1.0,0.0,1.0,0.0,0.0
cb100,cb100_pain,pain,1,108,10108,0,1.0,-0.31,-0.9,780.0,1.0,0.0,1.0,0.0,1.0,0.0,0.0
cb100,cb100_pain,pain,1,109,10109,0,1.0,-0.76,-0.8,1778.0,1.0,0.0,1.0,0.0,1.0,0.0,0.0
cb100,cb100_pain,pain,1,110,10110,1,1.0,-0.04,-0.78,595.0,1.0,0.0,1.0,0.0,1.0,0.0,0.0
cb100,cb100_pain,pain,1,111,10111,1,1.0,-0.28,-0.6,380.0,1.0,0.0,1.0,0.0,1.0,0.0,0.0
cb100,cb100_pain,pain,1,112,10112,0,0.0,-0.99,-0.56,1577.0,1.0,0.0,1.0,0.0,1.0,1.0,0.0
cb100,cb100_pain,pain,1,113,10113,0,1.0,-0.45,-0.31,1247.0,1.0,0.0,1.0,0.0,1.0,0.0,0.0
cb100,cb100_pain,pain,1,114,10114,1,1.0,-0.16,-0.55,484.0,1.0,0.0,1.0,0.0,1.0,0.0,0.0
cb100,cb100_pain,pain,1,115,10115,0,0.0,-0.89,-0.12,238.0,1.0,0.0,1.0,0.0,1.0,1.0,0.0
cb100,cb100_pain,pain,1,116,10116,0,1.0,-0.86,-0.49,1814.0,1.0,0.0,1.0,0.0,1.0,0.0,0.0
cb100,cb100_pain,pain,1,117,10117,0,1.0,-0.62,-0.69,256.0,1.0,0.0,1.0,0.0,1.0,0.0,0.0
cb100,cb100_pain,pain,1,118,10118,0,0.0,-0.26,-0.49,1010.0,1.0,0.0,1.0,0.0,1.0,1.0,0.0
cb100,cb100_pain,pain,1,119,10119,1,1.0,-0.76,-0.75,1436.0,1.0,0.0,1.0,0.0,1.0,0.0,0.0
cb100,cb100_pain,pain,1,120,10120,0,1.0,-0.9,-0.22,260.0,1.0,0.0,2.0,0.0,1.0,0.0,0.0
cb100,cb100_pain,pain,1,121,10121,0,1.0,-0.76,-0.26,1922.0,1.0,0.0,2.0,0.0,1.0,0.0,0.0
cb100,cb100_pain,pain,1,122,10122,0,1.0,-0.68,-0.11,395.0,1.0,0.0,2.0,0.0,1.0,0.0,0.0
cb100,cb100_pain,pain,1,123,10123,0,0.0,-0.82,-0.71,2016.0,1.0,0.0,2.0,0.0,1.0,1.0,0.0
cb100,cb100_pain,pain,1,124,10124,0,1.0,-0.95,-0.86,286.0,1.0,0.0,2.0,0.0,1.0,0.0,0.0
cb100,cb100_pain,pain,1,125,10125,0,1.0,-0.88,-0.79,320.0,1.0,0.0,2.0,0.0,1.0,0.0,0.0
cb100,cb100_pain,pain,1,126,10126,0,1.0,-0.4,-0.75,357.0,1.0,0.0,2.0,0.0,1.0,0.0,0.0
cb100,cb100_pain,pain,1,127,10127,0,1.0,-0.94,-0.11,274.0,1.0,0.0,2.0,0.0,1.0,0.0,0.0
cb100,cb100_pain,pain,1,128,10128,0,0.0,-0.44,-0.53,280.0,1.0,0.0,2.0,0.0,1.0,1.0,0.0
cb100,cb100_pain,pain,1,129,10129,0,1.0,-0.47,-0.85,300.0,1.0,0.0,2.0,0.0,1.0,0.0,0.0
cb100,cb100_pain,pain,1,130,10130,0,0.0,-0.32,-0.85,809.0,1.0,0.0,2.0,0.0,1.0,1.0,0.0
cb100,cb100_pain,pain,1,131,10131,0,1.0,-0.68,-0.38,381.0,1.0,0.0,2.0,0.0,1.0,0.0,0.0
cb100,cb100_pain,pain,1,132,10132,0,1.0,-0.93,-0.28,366.0,1.0,0.0,2.0,0.0,1.0,0.0,0.0
cb100,cb100_pain,pain,1,133,10133,0,1.0,-0.95,-0.13,995.0,1.0,0.0,2.0,0.0,1.0,0.0,0.0
cb100,cb100_pain,pain,1,134,10134,0,1.0,-0.6,-0.69,1849.0,1.0,0.0,2.0,0.0,1.0,0.0,0.0
cb100,cb100_pain,pain,1,135,10135,0,0.0,-0.95,-0.56,401.0,1.0,0.0,2.0,0.0,1.0,1.0,0.0
cb100,cb100_pain,pain,1,136,10136,0,1.0,-0.41,-0.02,2552.0,1.0,0.0,2.0,0.0,1.0,0.0,0.0
cb100,cb100_pain,pain,1,137,10137,1,1.0,-0.05,-0.42,272.0,1.0,0.0,2.0,0.0,1.0,0.0,0.0
cb100,cb100_pain,pain,1,138,10138,0,0.0,-0.3,-0.44,284.0,1.0,0.0,2.0,0.0,1.0,1.0,0.0
cb100,cb100_pain,pain,1,139,10139,1,1.0,-0.54,-0.79,900.0,1.0,0.0,2.0,0.0,1.0,0.0,0.0
cb100,cb100_pain,pain,1,140,10140,0,1.0,-0.87,-0.83,1130.0,1.0,0.0,2.0,0.0,1.0,0.0,0.0
cb100,cb100_pain,pain,1,141,10141,0,1.0,-0.44,-0.59,1060.0,1.0,0.0,2.0,0.0,1.0,0.0,0.0
cb100,cb100_pain,pain,1,142,10142,0,0.0,-0.1,-0.15,455.0,1.0,0.0,2.0,0.0,1.0,1.0,0.0
cb100,cb100_pain,pain,1,143,10143,1,1.0,-0.15,-0.6,1695.0,1.0,0.0,2.0,0.0,1.0,0.0,0.0
cb100,cb100_pain,pain,1,144,10144,1,0.0,-0.25,-0.93,2877.0,1.0,0.0,2.0,0.0,1.0,1.0,0.0
cb100,cb100_pain,pain,1,145,10145,0,1.0,-0.23,-0.43,1893.0,1.0,0.0,2.0,0.0,1.0,0.0,0.0
cb100,cb100_pain,pain,1,146,10146,0,1.0,-0.87,-0.22,1397.0,1.0,0.0,2.0,0.0,1.0,0.0,0.0
cb100,cb100_pain,pain,1,147,10147,0,0.0,-0.77,-0.27,1764.0,1.0,0.0,2.0,0.0,1.0,1.0,0.0
cb100,cb100_pain,pain,1,148,10148,1,1.0,-0.35,-0.99,796.0,1.0,0.0,2.0,0.0,1.0,0.0,0.0
cb100,cb100_pain,pain,1,149,10149,0,0.0,-0.39,-0.49,783.0,1.0,0.0,2.0,0.0,1.0,1.0,0.0
cb100,cb100_pain,pain,1,150,10150,1,1.0,-0.6,-0.83,2058.0,1.0,0.0,2.0,0.0,1.0,0.0,0.0
cb100,cb100_pain,pain,1,151,10151,0,0.0,-0.54,-0.61,636.0,1.0,0.0,2.0,0.0,1.0,1.0,0.0
cb100,cb100_pain,pain,1,152,10152,1,1.0,-0.34,-0.82,163.0,1.0,0.0,2.0,0.0,1.0,0.0,0.0
cb100,cb100_pain,pain,1,153,10153,0,1.0,-0.86,-0.96,1260.0,1.0,0.0,2.0,0.0,1.0,0.0,0.0
cb100,cb100_pain,pain,1,154,10154,1,1.0,-0.27,-0.65,313.0,1.0,0.0,2.0,0.0,1.0,0.0,0.0
cb100,cb100_pain,pain,1,155,10155,0,0.0,-0.93,-0.63,560.0,1.0,0.0,2.0,0.0,1.0,1.0,0.0
cb100,cb100_pain,pain,1,156,10156,0,1.0,-0.4,-0.65,843.0,1.0,0.0,2.0,0.0,1.0,0.0,0.0
cb100,cb100_pain,pain,1,157,10157,0,1.0,-0.69,-0.07,2741.0,1.0,0.0,2.0,0.0,1.0,0.0,0.0
cb100,cb100_pain,pain,1,158,10158,1,0.0,-0.28,-0.94,163.0,1.0,0.0,2.0,0.0,1.0,1.0,0.0
cb100,cb100_pain,pain,1,159,10159,1,1.0,-0.04,-0.9,260.0,1.0,0.0,2.0,0.0,1.0,0.0,0.0
cb100,cb100_pain,pain,1,160,10160,0,1.0,-0.94,-0.7,3236.0,1.0,0.0,2.0,0.0,1.0,0.0,0.0
cb100,cb100_pain,pain,1,161,10161,0,1.0,-0.54,-0.32,2816.0,1.0,0.0,2.0,0.0,1.0,0.0,0.0
cb100,cb100_pain,pain,1,162,10162,0,1.0,-0.67,-0.35,1414.0,1.0,0.0,2.0,0.0,1.0,0.0,0.0
cb100,cb100_pain,pain,1,163,10163,0,1.0,-0.61,-0.09,244.0,1.0,0.0,2.0,0.0,1.0,0.0,0.0
cb100,cb100_pain,pain,1,164,10164,0,1.0,-0.75,-0.52,438.0,1.0,0.0,2.0,0.0,1.0,0.0,0.0
cb100,cb100_pain,pain,1,165,10165,0,0.0,-0.98,-0.61,317.0,1.0,0.0,2.0,0.0,1.0,1.0,0.0
cb100,cb100_pain,pain,1,166,10166,0,1.0,-0.73,-0.73,284.0,1.0,0.0,2.0,0.0,1.0,0.0,0.0
cb100,cb100_pain,pain,1,167,10167,0,1.0,-0.86,-0.01,315.0,1.0,0.0,2.0,0.0,1.0,0.0,0.0
cb100,cb100_pain,pain,1,168,10168,0,0.0,-0.99,-0.18,640.0,1.0,0.0,2.0,0.0,1.0,1.0,0.0
cb100,cb100_pain,pain,1,169,10169,0,1.0,-0.76,-0.47,161.0,1.0,0.0,2.0,0.0,1.0,0.0,0.0
cb100,cb100_pain,pain,1,170,10170,0,1.0,-0.15,-0.37,1640.0,1.0,0.0,2.0,0.0,1.0,0.0,0.0
cb100,cb100_pain,pain,1,171,10171,0,1.0,-0.33,-0.95,428.0,1.0,0.0,2.0,0.0,1.0,0.0,0.0
cb100,cb100_pain,pain,1,172,10172,1,0.0,-0.04,-0.93,342.0,1.0,0.0,2.0,0.0,1.0,1.0,0.0
cb100,cb100_pain,pain,1,173,10173,0,0.0,-0.7,-0.96,2219.0,1.0,0.0,2.0,0.0,1.0,1.0,0.0
cb100,cb100_pain,pain,1,174,10174,0,0.0,-0.96,-0.21,384.0,1.0,0.0,2.0,0.0,1.0,1.0,0.0
cb100,cb100_pain,pain,1,175,10175,0,0.0,-0.73,-0.17,977.0,1.0,0.0,2.0,0.0,1.0,1.0,0.0
cb100,cb100_pain,pain,1,176,10176,0,1.0,-0.74,-0.58,742.0,1.0,0.0,2.0,0.0,1.0,0.0,0.0
cb100,cb100_pain,pain,1,177,10177,1,1.0,-0.18,-0.6,2209.0,1.0,0.0,2.0,0.0,1.0,0.0,0.0
cb100,cb100_pain,pain,1,178,10178,0,1.0,-0.36,-0.7,396.0,1.0,0.0,2.0,0.0,1.0,0.0,0.0
cb100,cb100_pain,pain,1,179,10179,0,1.0,-0.58,-0.31,374.0,1.0,0.0,2.0,0.0,1.0,0.0,0.0
cb101,cb101_reward,reward,0,0,0,0,1.0,0.01,0.2,657.0,0.0,1.0,0.0,1.0,0.0,1.0,1.0
cb101,cb101_reward,reward,0,1,1,1,1.0,0.12,0.43,1040.0,0.0,1.0,0.0,1.0,0.0,1.0,0.0
cb101,cb101_reward,reward,0,2,2,1,1.0,0.9,0.21,1715.0,0.0,1.0,0.0,1.0,0.0,1.0,0.0
cb101,cb101_reward,reward,0,3,3,1,0.0,0.62,0.26,2421.0,0.0,1.0,0.0,1.0,0.0,0.0,0.0
cb101,cb101_reward,reward,0,4,4,1,1.0,0.19,0.95,1360.0,0.0,1.0,0.0,1.0,0.0,1.0,0.0
cb101,cb101_reward,reward,0,5,5,1,1.0,0.61,0.1,1872.0,0.0,1.0,0.0,1.0,0.0,1.0,0.0
cb101,cb101_reward,reward,0,6,6,0,1.0,0.12,0.9,1644.0,0.0,1.0,0.0,1.0,0.0,1.0,0.0
cb101,cb101_reward,reward,0,7,7,0,1.0,0.99,0.47,701.0,0.0,1.0,0.0,1.0,0.0,1.0,0.0
cb101,cb101_reward,reward,0,8,8,1,1.0,0.06,0.08,1380.0,0.0,1.0,0.0,1.0,0.0,1.0,0.0
cb101,cb101_reward,reward,0,9,9,1,1.0,0.81,0.29,2130.0,0.0,1.0,0.0,1.0,0.0,1.0,0.0
cb101,cb101_reward,reward,0,10,10,1,1.0,0.34,0.49,3491.0,0.0,1.0,0.0,1.0,0.0,1.0,0.0
cb101,cb101_reward,reward,0,11,11,1,1.0,0.99,0.74,1330.0,0.0,1.0,0.0,1.0,0.0,1.0,0.0
cb101,cb101_reward,reward,0,12,12,1,1.0,0.87,0.8,521.0,0.0,1.0,0.0,1.0,0.0,1.0,0.0
cb101,cb101_reward,reward,0,13,13,1,1.0,0.28,0.02,1447.0,0.0,1.0,0.0,1.0,0.0,1.0,0.0
cb101,cb101_reward,reward,0,14,14,1,1.0,0.81,0.4,776.0,0.0,1.0,0.0,1.0,0.0,1.0,0.0
cb101,cb101_reward,reward,0,15,15,1,1.0,0.78,0.45,1710.0,0.0,1.0,0.0,1.0,0.0,1.0,0.0
cb101,cb101_reward,reward,0,16,16,1,0.0,0.28,0.28,2182.0,0.0,1.0,0.0,1.0,0.0,0.0,0.0
cb101,cb101_reward,reward,0,17,17,1,0.0,0.19,0.27,978.0,0.0,1.0,0.0,1.0,0.0,0.0,0.0
cb101,cb101_reward,reward,0,18,18,0,0.0,0.28,0.32,533.0,0.0,1.0,0.0,1.0,0.0,0.0,0.0
cb101,cb101_reward,reward,0,19,19,0,1.0,0.17,0.85,1051.0,0.0,1.0,0.0,1.0,0.0,1.0,0.0
cb101,cb101_reward,reward,0,20,20,1,0.0,0.94,0.39,565.0,0.0,1.0,0.0,1.0,0.0,0.0,0.0
cb101,cb101_reward,reward,0,21,21,0,1.0,0.43,0.72,3448.0,0.0,1.0,0.0,1.0,0.0,1.0,0.0
cb101,cb101_reward,reward,0,22,22,1,0.0,0.59,0.35,610.0,0.0,1.0,0.0,1.0,0.0,0.0,0.0
cb101,cb101_reward,reward,0,23,23,1,0.0,0.83,0.85,1782.0,0.0,1.0,0.0,1.0,0.0,0.0,0.0
cb101,cb101_reward,reward,0,24,24,1,0.0,0.81,0.89,766.0,0.0,1.0,0.0,1.0,0.0,0.0,0.0
cb101,cb101_reward,reward,0,25,25,0,0.0,0.99,0.93,591.0,0.0,1.0,0.0,1.0,0.0,0.0,0.0
cb101,cb101_reward,reward,0,26,26,0,0.0,0.5,0.42,1061.0,0.0,1.0,0.0,1.0,0.0,0.0,0.0
cb101,cb101_reward,reward,0,27,27,0,1.0,0.73,0.46,1626.0,0.0,1.0,0.0,1.0,0.0,1.0,0.0
cb101,cb101_reward,reward,0,28,28,0,0.0,0.51,0.5,669.0,0.0,1.0,0.0,1.0,0.0,0.0,0.0
cb101,cb101_reward,reward,0,29,29,0,0.0,0.03,0.74,910.0,0.0,1.0,0.0,1.0,0.0,0.0,0.0
cb101,cb101_reward,reward,0,30,30,0,0.0,0.32,0.85,1288.0,0.0,1.0,0.0,1.0,0.0,0.0,0.0
cb101,cb101_reward,reward,0,31,31,0,0.0,0.68,0.3,657.0,0.0,1.0,0.0,1.0,0.0,0.0,0.0
cb101,cb101_reward,reward,0,32,32,0,1.0,0.25,0.12,1143.0,0.0,1.0,0.0,1.0,0.0,1.0,0.0
cb101,cb101_reward,reward,0,33,33,0,0.0,0.46,0.52,323.0,0.0,1.0,0.0,1.0,0.0,0.0,0.0
cb101,cb101_reward,reward,0,34,34,0,0.0,0.12,0.87,703.0,0.0,1.0,0.0,1.0,0.0,0.0,0.0
cb101,cb101_reward,reward,0,35,35,0,0.0,0.76,0.29,3076.0,0.0,1.0,0.0,1.0,0.0,0.0,0.0
cb101,cb101_reward,reward,0,36,36,0,1.0,0.82,0.42,1903.0,0.0,1.0,0.0,1.0,0.0,1.0,0.0
cb101,cb101_reward,reward,0,37,37,0,0.0,0.39,0.65,541.0,0.0,1.0,0.0,1.0,0.0,0.0,0.0
cb101,cb101_reward,reward,0,38,38,0,0.0,0.15,0.15,1042.0,0.0,1.0,0.0,1.0,0.0,0.0,0.0
cb101,cb101_reward,reward,0,39,39,0,1.0,0.87,0.42,681.0,0.0,1.0,0.0,1.0,0.0,1.0,0.0
cb101,cb101_reward,reward,0,40,40,0,1.0,0.24,0.26,849.0,0.0,1.0,0.0,1.0,0.0,1.0,0.0
cb101,cb101_reward,reward,0,41,41,1,1.0,0.4,0.5,640.0,0.0,1.0,0.0,1.0,0.0,1.0,0.0
cb101,cb101_reward,reward,0,42,42,1,1.0,0.66,0.61,880.0,0.0,1.0,0.0,1.0,0.0,1.0,0.0
cb101,cb101_reward,reward,0,43,43,1,1.0,0.95,0.14,1258.0,0.0,1.0,0.0,1.0,0.0,1.0,0.0
cb101,cb101_reward,reward,0,44,44,1,1.0,0.33,0.11,3420.0,0.0,1.0,0.0,1.0,0.0,1.0,0.0
cb101,cb101_reward,reward,0,45,45,1,1.0,0.4,0.68,1899.0,0.0,1.0,0.0,1.0,0.0,1.0,0.0
cb101,cb101_reward,reward,0,46,46,1,1.0,0.45,0.3,695.0,0.0,1.0,0.0,1.0,0.0,1.0,0.0
cb101,cb101_reward,reward,0,47,47,1,0.0,0.52,0.7,688.0,0.0,1.0,0.0,1.0,0.0,0.0,0.0
cb101,cb101_reward,reward,0,48,48,1,1.0,0.79,0.64,637.0,0.0,1.0,0.0,1.0,0.0,1.0,0.0
cb101,cb101_reward,reward,0,49,49,1,1.0,0.67,0.19,1180.0,0.0,1.0,0.0,1.0,0.0,1.0,0.0
cb101,cb101_reward,reward,0,50,50,1,1.0,0.11,0.22,480.0,0.0,1.0,0.0,1.0,0.0,1.0,0.0
cb101,cb101_reward,reward,0,51,51,1,0.0,0.1,0.21,551.0,0.0,1.0,0.0,1.0,0.0,0.0,0.0
cb101,cb101_reward,reward,0,52,52,1,1.0,0.76,0.13,736.0,0.0,1.0,0.0,1.0,0.0,1.0,0.0
cb101,cb101_reward,reward,0,53,53,1,1.0,0.28,0.61,1140.0,0.0,1.0,0.0,1.0,0.0,1.0,0.0
cb101,cb101_reward,reward,0,54,54,1,0.0,0.56,0.74,466.0,0.0,1.0,0.0,1.0,0.0,0.0,0.0
cb101,cb101_reward,reward,0,55,55,1,1.0,0.39,0.34,766.0,0.0,1.0,0.0,1.0,0.0,1.0,0.0
cb101,cb101_reward,reward,0,56,56,1,1.0,0.89,0.18,477.0,0.0,1.0,0.0,1.0,0.0,1.0,0.0
cb101,cb101_reward,reward,0,57,57,1,1.0,0.54,0.78,395.0,0.0,1.0,0.0,1.0,0.0,1.0,0.0
cb101,cb101_reward,reward,0,58,58,1,1.0,0.02,0.87,658.0,0.0,1.0,0.0,1.0,0.0,1.0,0.0
cb101,cb101_reward,reward,0,59,59,1,1.0,0.57,0.17,326.0,0.0,1.0,0.0,1.0,0.0,1.0,0.0
cb101,cb101_reward,reward,0,60,60,1,0.0,0.22,0.35,916.0,0.0,1.0,1.0,1.0,0.0,0.0,0.0
cb101,cb101_reward,reward,0,61,61,1,1.0,0.88,0.21,147.0,0.0,1.0,1.0,1.0,0.0,1.0,0.0
cb101,cb101_reward,reward,0,62,62,1,0.0,0.19,0.46,884.0,0.0,1.0,1.0,1.0,0.0,0.0,0.0
cb101,cb101_reward,reward,0,63,63,1,0.0,0.53,0.06,326.0,0.0,1.0,1.0,1.0,0.0,0.0,0.0
cb101,cb101_reward,reward,0,64,64,0,0.0,0.55,0.69,406.0,0.0,1.0,1.0,1.0,0.0,0.0,0.0
cb101,cb101_reward,reward,0,65,65,0,0.0,0.89,0.81,506.0,0.0,1.0,1.0,1.0,0.0,0.0,0.0
cb101,cb101_reward,reward,0,66,66,0,0.0,0.54,0.83,1620.0,0.0,1.0,1.0,1.0,0.0,0.0,0.0
cb101,cb101_reward,reward,0,67,67,0,0.0,0.7,0.39,639.0,0.0,1.0,1.0,1.0,0.0,0.0,0.0
cb101,cb101_reward,reward,0,68,68,0,0.0,0.36,0.5,1484.0,0.0,1.0,1.0,1.0,0.0,0.0,0.0
cb101,cb101_reward,reward,0,69,69,0,0.0,0.17,0.8,1921.0,0.0,1.0,1.0,1.0,0.0,0.0,0.0
cb101,cb101_reward,reward,0,70,70,0,0.0,0.3,0.44,664.0,0.0,1.0,1.0,1.0,0.0,0.0,0.0
cb101,cb101_reward,reward,0,71,71,0,0.0,0.59,0.22,1680.0,0.0,1.0,1.0,1.0,0.0,0.0,0.0
cb101,cb101_reward,reward,0,72,72,0,0.0,0.65,0.75,1370.0,0.0,1.0,1.0,1.0,0.0,0.0,0.0
cb101,cb101_reward,reward,0,73,73,0,0.0,0.71,0.34,1299.0,0.0,1.0,1.0,1.0,0.0,0.0,0.0
cb101,cb101_reward,reward,0,74,74,0,1.0,0.53,0.78,902.0,0.0,1.0,1.0,1.0,0.0,1.0,0.0
cb101,cb101_reward,reward,0,75,75,1,0.0,0.83,0.59,684.0,0.0,1.0,1.0,1.0,0.0,0.0,0.0
cb101,cb101_reward,reward,0,76,76,0,1.0,0.21,0.71,280.0,0.0,1.0,1.0,1.0,0.0,1.0,0.0
cb101,cb101_reward,reward,0,77,77,0,0.0,0.78,0.78,325.0,0.0,1.0,1.0,1.0,0.0,0.0,0.0
cb101,cb101_reward,reward,0,78,78,1,0.0,0.83,0.47,668.0,0.0,1.0,1.0,1.0,0.0,0.0,0.0
cb101,cb101_reward,reward,0,79,79,0,0.0,0.47,0.59,1360.0,0.0,1.0,1.0,1.0,0.0,0.0,0.0
cb101,cb101_reward,reward,0,80,80,0,1.0,0.19,0.02,1229.0,0.0,1.0,1.0,1.0,0.0,1.0,0.0
cb101,cb101_reward,reward,0,81,81,0,1.0,0.36,0.04,353.0,0.0,1.0,1.0,1.0,0.0,1.0,0.0
cb101,cb101_reward,reward,0,82,82,0,1.0,0.07,0.36,712.0,0.0,1.0,1.0,1.0,0.0,1.0,0.0
cb101,cb101_reward,reward,0,83,83,1,1.0,0.62,0.72,282.0,0.0,1.0,1.0,1.0,0.0,1.0,0.0
cb101,cb101_reward,reward,0,84,84,1,0.0,0.4,0.32,1835.0,0.0,1.0,1.0,1.0,0.0,0.0,0.0
cb101,cb101_reward,reward,0,85,85,1,1.0,0.35,0.62,636.0,0.0,1.0,1.0,1.0,0.0,1.0,0.0
cb101,cb101_reward,reward,0,86,86,1,1.0,0.9,0.91,777.0,0.0,1.0,1.0,1.0,0.0,1.0,0.0
cb101,cb101_reward,reward,0,87,87,1,1.0,0.59,0.17,1704.0,0.0,1.0,1.0,1.0,0.0,1.0,0.0
cb101,cb101_reward,reward,0,88,88,1,1.0,0.39,0.32,911.0,0.0,1.0,1.0,1.0,0.0,1.0,0.0
cb101,cb101_reward,reward,0,89,89,1,1.0,0.79,0.77,1919.0,0.0,1.0,1.0,1.0,0.0,1.0,0.0
cb101,cb101_reward,reward,0,90,90,1,0.0,0.33,0.61,804.0,1.0,0.0,1.0,1.0,0.0,0.0,0.0
cb101,cb101_reward,reward,0,91,91,0,0.0,0.48,0.14,545.0,1.0,0.0,1.0,1.0,0.0,0.0,0.0
cb101,cb101_reward,reward,0,92,92,0,0.0,0.19,0.9,763.0,1.0,0.0,1.0,1.0,0.0,0.0,0.0
cb101,cb101_reward,reward,0,93,93,0,0.0,0.34,0.43,831.0,1.0,0.0,1.0,1.0,0.0,0.0,0.0
cb101,cb101_reward,reward,0,94,94,0,0.0,0.51,0.87,5.0,1.0,0.0,1.0,1.0,0.0,0.0,0.0
cb101,cb101_reward,reward,0,95,95,0,0.0,0.22,0.55,1934.0,1.0,0.0,1.0,1.0,0.0,0.0,0.0
cb101,cb101_reward,reward,0,96,96,0,0.0,0.95,0.62,583.0,1.0,0.0,1.0,1.0,0.0,0.0,0.0
cb101,cb101_reward,reward,0,97,97,0,0.0,0.21,0.07,587.0,1.0,0.0,1.0,1.0,0.0,0.0,0.0
cb101,cb101_reward,reward,0,98,98,0,0.0,0.55,0.05,461.0,1.0,0.0,1.0,1.0,0.0,0.0,0.0
cb101,cb101_reward,reward,0,99,99,0,0.0,0.91,0.24,668.0,1.0,0.0,1.0,1.0,0.0,0.0,0.0
cb101,cb101_reward,reward,0,100,100,0,0.0,0.65,0.12,365.0,1.0,0.0,1.0,1.0,0.0,0.0,0.0
cb101,cb101_reward,reward,0,101,101,0,0.0,0.3,0.69,682.0,1.0,0.0,1.0,1.0,0.0,0.0,0.0
cb101,cb101_reward,reward,0,102,102,0,1.0,0.27,0.3,380.0,1.0,0.0,1.0,1.0,0.0,1.0,0.0
cb101,cb101_reward,reward,0,103,103,1,0.0,0.42,0.94,784.0,1.0,0.0,1.0,1.0,0.0,0.0,0.0
cb101,cb101_reward,reward,0,104,104,0,0.0,0.33,0.97,1280.0,1.0,0.0,1.0,1.0,0.0,0.0,0.0
cb101,cb101_reward,reward,0,105,105,0,0.0,0.51,0.7,585.0,1.0,0.0,1.0,1.0,0.0,0.0,0.0
cb101,cb101_reward,reward,0,106,106,0,0.0,0.71,0.84,1719.0,1.0,0.0,1.0,1.0,0.0,0.0,0.0
cb101,cb101_reward,reward,0,107,107,0,0.0,0.29,0.09,321.0,1.0,0.0,1.0,1.0,0.0,0.0,0.0
cb101,cb101_reward,reward,0,108,108,0,0.0,0.52,0.18,561.0,1.0,0.0,1.0,1.0,0.0,0.0,0.0
cb101,cb101_reward,reward,0,109,109,0,0.0,0.24,0.88,580.0,1.0,0.0,1.0,1.0,0.0,0.0,0.0
cb101,cb101_reward,reward,0,110,110,0,0.0,0.38,0.88,502.0,1.0,0.0,1.0,1.0,0.0,0.0,0.0
cb101,cb101_reward,reward,0,111,111,0,0.0,0.2,0.59,743.0,1.0,0.0,1.0,1.0,0.0,0.0,0.0
cb101,cb101_reward,reward,0,112,112,0,1.0,0.1,0.84,1297.0,1.0,0.0,1.0,1.0,0.0,1.0,0.0
cb101,cb101_reward,reward,0,113,113,0,0.0,0.69,0.73,985.0,1.0,0.0,1.0,1.0,0.0,0.0,0.0
cb101,cb101_reward,reward,0,114,114,0,0.0,0.18,1.0,1186.0,1.0,0.0,1.0,1.0,0.0,0.0,0.0
cb101,cb101_reward,reward,0,115,115,0,1.0,0.86,0.57,913.0,1.0,0.0,1.0,1.0,0.0,1.0,0.0
cb101,cb101_reward,reward,0,116,116,0,0.0,0.41,0.56,323.0,1.0,0.0,1.0,1.0,0.0,0.0,0.0
cb101,cb101_reward,reward,0,117,117,0,0.0,0.77,0.84,326.0,1.0,0.0,1.0,1.0,0.0,0.0,0.0
cb101,cb101_reward,reward,0,118,118,0,1.0,0.99,0.16,780.0,1.0,0.0,1.0,1.0,0.0,1.0,0.0
cb101,cb101_reward,reward,0,119,119,0,0.0,0.53,0.94,300.0,1.0,0.0,1.0,1.0,0.0,0.0,0.0
cb101,cb101_reward,reward,0,120,120,0,0.0,0.72,0.34,440.0,1.0,0.0,2.0,1.0,0.0,0.0,0.0
cb101,cb101_reward,reward,0,121,121,0,0.0,0.76,0.56,1346.0,1.0,0.0,2.0,1.0,0.0,0.0,0.0
cb101,cb101_reward,reward,0,122,122,0,0.0,0.92,0.25,1207.0,1.0,0.0,2.0,1.0,0.0,0.0,0.0
cb101,cb101_reward,reward,0,123,123,0,1.0,0.41,0.61,1050.0,1.0,0.0,2.0,1.0,0.0,1.0,0.0
cb101,cb101_reward,reward,0,124,124,0,0.0,0.97,0.8,866.0,1.0,0.0,2.0,1.0,0.0,0.0,0.0
cb101,cb101_reward,reward,0,125,125,0,0.0,0.75,0.25,1659.0,1.0,0.0,2.0,1.0,0.0,0.0,0.0
cb101,cb101_reward,reward,0,126,126,0,0.0,0.91,0.43,360.0,1.0,0.0,2.0,1.0,0.0,0.0,0.0
cb101,cb101_reward,reward,0,127,127,0,0.0,0.15,0.22,1380.0,1.0,0.0,2.0,1.0,0.0,0.0,0.0
cb101,cb101_reward,reward,0,128,128,0,1.0,0.19,0.64,280.0,1.0,0.0,2.0,1.0,0.0,1.0,0.0
cb101,cb101_reward,reward,0,129,129,0,0.0,0.09,0.15,404.0,1.0,0.0,2.0,1.0,0.0,0.0,0.0
cb101,cb101_reward,reward,0,130,130,0,1.0,0.58,0.39,1064.0,1.0,0.0,2.0,1.0,0.0,1.0,0.0
cb101,cb101_reward,reward,0,131,131,0,0.0,0.85,0.32,1392.0,1.0,0.0,2.0,1.0,0.0,0.0,0.0
cb101,cb101_reward,reward,0,132,132,0,0.0,0.94,0.51,1680.0,1.0,0.0,2.0,1.0,0.0,0.0,0.0
cb101,cb101_reward,reward,0,133,133,0,0.0,0.33,0.79,620.0,1.0,0.0,2.0,1.0,0.0,0.0,0.0
cb101,cb101_reward,reward,0,134,134,0,0.0,0.51,0.5,420.0,1.0,0.0,2.0,1.0,0.0,0.0,0.0
cb101,cb101_reward,reward,0,135,135,1,1.0,0.63,0.2,235.0,1.0,0.0,2.0,1.0,0.0,1.0,0.0
cb101,cb101_reward,reward,0,136,136,1,0.0,0.51,0.9,267.0,1.0,0.0,2.0,1.0,0.0,0.0,0.0
cb101,cb101_reward,reward,0,137,137,1,0.0,0.64,0.73,296.0,1.0,0.0,2.0,1.0,0.0,0.0,0.0
cb101,cb101_reward,reward,0,138,138,0,1.0,0.47,0.7,300.0,1.0,0.0,2.0,1.0,0.0,1.0,0.0
cb101,cb101_reward,reward,0,139,139,1,0.0,0.52,0.77,381.0,1.0,0.0,2.0,1.0,0.0,0.0,0.0
cb101,cb101_reward,reward,0,140,140,1,0.0,0.58,0.25,1059.0,1.0,0.0,2.0,1.0,0.0,0.0,0.0
cb101,cb101_reward,reward,0,141,141,0,0.0,0.93,0.82,511.0,1.0,0.0,2.0,1.0,0.0,0.0,0.0
cb101,cb101_reward,reward,0,142,142,0,1.0,0.43,0.91,519.0,1.0,0.0,2.0,1.0,0.0,1.0,0.0
cb101,cb101_reward,reward,0,143,143,0,0.0,0.17,0.42,541.0,1.0,0.0,2.0,1.0,0.0,0.0,0.0
cb101,cb101_reward,reward,0,144,144,1,1.0,0.2,0.35,1037.0,1.0,0.0,2.0,1.0,0.0,1.0,0.0
cb101,cb101_reward,reward,0,145,145,0,0.0,0.61,0.58,416.0,1.0,0.0,2.0,1.0,0.0,0.0,0.0
cb101,cb101_reward,reward,0,146,146,1,0.0,0.66,0.4,332.0,1.0,0.0,2.0,1.0,0.0,0.0,0.0
cb101,cb101_reward,reward,0,147,147,0,1.0,0.29,0.64,362.0,1.0,0.0,2.0,1.0,0.0,1.0,0.0
cb101,cb101_reward,reward,0,148,148,1,0.0,0.97,0.34,304.0,1.0,0.0,2.0,1.0,0.0,0.0,0.0
cb101,cb101_reward,reward,0,149,149,0,1.0,0.85,0.47,621.0,1.0,0.0,2.0,1.0,0.0,1.0,0.0
cb101,cb101_reward,reward,0,150,150,0,0.0,0.96,0.71,795.0,1.0,0.0,2.0,1.0,0.0,0.0,0.0
cb101,cb101_reward,reward,0,151,151,1,1.0,0.27,0.75,519.0,1.0,0.0,2.0,1.0,0.0,1.0,0.0
cb101,cb101_reward,reward,0,152,152,0,0.0,0.86,0.9,969.0,1.0,0.0,2.0,1.0,0.0,0.0,0.0
cb101,cb101_reward,reward,0,153,153,1,0.0,0.83,0.59,1300.0,1.0,0.0,2.0,1.0,0.0,0.0,0.0
cb101,cb101_reward,reward,0,154,154,0,0.0,0.95,0.18,968.0,1.0,0.0,2.0,1.0,0.0,0.0,0.0
cb101,cb101_reward,reward,0,155,155,1,1.0,0.29,0.21,360.0,1.0,0.0,2.0,1.0,0.0,1.0,0.0
cb101,cb101_reward,reward,0,156,156,1,0.0,0.05,0.75,740.0,1.0,0.0,2.0,1.0,0.0,0.0,0.0
cb101,cb101_reward,reward,0,157,157,0,0.0,0.3,0.44,584.0,1.0,0.0,2.0,1.0,0.0,0.0,0.0
cb101,cb101_reward,reward,0,158,158,1,1.0,0.73,0.01,1026.0,1.0,0.0,2.0,1.0,0.0,1.0,0.0
cb101,cb101_reward,reward,0,159,159,0,0.0,0.54,0.55,1162.0,1.0,0.0,2.0,1.0,0.0,0.0,0.0
cb101,cb101_reward,reward,0,160,160,1,0.0,0.22,0.71,342.0,1.0,0.0,2.0,1.0,0.0,0.0,0.0
cb101,cb101_reward,reward,0,161,161,1,0.0,0.14,0.08,260.0,1.0,0.0,2.0,1.0,0.0,0.0,0.0
cb101,cb101_reward,reward,0,162,162,0,0.0,0.9,0.72,277.0,1.0,0.0,2.0,1.0,0.0,0.0,0.0
cb101,cb101_reward,reward,0,163,163,0,0.0,0.65,0.79,340.0,1.0,0.0,2.0,1.0,0.0,0.0,0.0
cb101,cb101_reward,reward,0,164,164,0,0.0,0.44,0.68,1370.0,1.0,0.0,2.0,1.0,0.0,0.0,0.0
cb101,cb101_reward,reward,0,165,165,0,1.0,0.07,0.22,358.0,1.0,0.0,2.0,1.0,0.0,1.0,0.0
cb101,cb101_reward,reward,0,166,166,0,0.0,0.35,0.76,626.0,1.0,0.0,2.0,1.0,0.0,0.0,0.0
cb101,cb101_reward,reward,0,167,167,0,0.0,0.76,0.68,470.0,1.0,0.0,2.0,1.0,0.0,0.0,0.0
cb101,cb101_reward,reward,0,168,168,0,1.0,0.57,0.5,420.0,1.0,0.0,2.0,1.0,0.0,1.0,0.0
cb101,cb101_reward,reward,0,169,169,0,0.0,0.72,0.65,480.0,1.0,0.0,2.0,1.0,0.0,0.0,0.0
cb101,cb101_reward,reward,0,170,170,0,0.0,0.86,0.85,458.0,1.0,0.0,2.0,1.0,0.0,0.0,0.0
cb101,cb101_reward,reward,0,171,171,0,0.0,0.11,0.36,780.0,1.0,0.0,2.0,1.0,0.0,0.0,0.0
cb101,cb101_reward,reward,0,172,172,0,1.0,0.02,0.45,1053.0,1.0,0.0,2.0,1.0,0.0,1.0,0.0
cb101,cb101_reward,reward,0,173,173,0,1.0,0.65,0.59,240.0,1.0,0.0,2.0,1.0,0.0,1.0,0.0
cb101,cb101_reward,reward,0,174,174,1,1.0,0.48,0.91,440.0,1.0,0.0,2.0,1.0,0.0,1.0,0.0
cb101,cb101_reward,reward,0,175,175,1,1.0,0.54,0.8,317.0,1.0,0.0,2.0,1.0,0.0,1.0,0.0
cb101,cb101_reward,reward,0,176,176,1,0.0,0.74,0.27,618.0,1.0,0.0,2.0,1.0,0.0,0.0,0.0
cb101,cb101_reward,reward,0,177,177,1,0.0,0.1,0.99,624.0,1.0,0.0,2.0,1.0,0.0,0.0,0.0
cb101,cb101_reward,reward,0,178,178,0,0.0,0.61,0.18,380.0,1.0,0.0,2.0,1.0,0.0,0.0,0.0
cb101,cb101_reward,reward,0,179,179,0,0.0,0.72,0.63,324.0,1.0,0.0,2.0,1.0,0.0,0.0,0.0
cb101,cb101_pain,pain,1,0,10000,0,0.0,-0.1,-0.23,559.0,0.0,1.0,0.0,0.0,1.0,1.0,1.0
cb101,cb101_pain,pain,1,1,10001,1,0.0,-0.97,-0.45,817.0,0.0,1.0,0.0,0.0,1.0,1.0,0.0
cb101,cb101_pain,pain,1,2,10002,1,0.0,-0.62,-0.54,131.0,0.0,1.0,0.0,0.0,1.0,1.0,0.0
cb101,cb101_pain,pain,1,3,10003,0,1.0,-0.16,-0.99,823.0,0.0,1.0,0.0,0.0,1.0,0.0,0.0
cb101,cb101_pain,pain,1,4,10004,0,0.0,-0.4,-0.72,2946.0,0.0,1.0,0.0,0.0,1.0,1.0,0.0
cb101,cb101_pain,pain,1,5,10005,1,0.0,-0.88,-0.98,2483.0,0.0,1.0,0.0,0.0,1.0,1.0,0.0
cb101,cb101_pain,pain,1,6,10006,1,0.0,-0.54,-0.06,2070.0,0.0,1.0,0.0,0.0,1.0,1.0,0.0
cb101,cb101_pain,pain,1,7,10007,0,0.0,-0.55,-0.64,1120.0,0.0,1.0,0.0,0.0,1.0,1.0,0.0
cb101,cb101_pain,pain,1,8,10008,1,0.0,-0.45,-0.96,2440.0,0.0,1.0,0.0,0.0,1.0,1.0,0.0
cb101,cb101_pain,pain,1,9,10009,0,0.0,-0.19,-0.28,524.0,0.0,1.0,0.0,0.0,1.0,1.0,0.0
cb101,cb101_pain,pain,1,10,10010,0,0.0,-0.26,-0.95,835.0,0.0,1.0,0.0,0.0,1.0,1.0,0.0
cb101,cb101_pain,pain,1,11,10011,0,0.0,-0.29,-0.9,420.0,0.0,1.0,0.0,0.0,1.0,1.0,0.0
cb101,cb101_pain,pain,1,12,10012,0,0.0,-0.53,-0.2,440.0,0.0,1.0,0.0,0.0,1.0,1.0,0.0
cb101,cb101_pain,pain,1,13,10013,0,0.0,-0.56,-0.74,422.0,0.0,1.0,0.0,0.0,1.0,1.0,0.0
cb101,cb101_pain,pain,1,14,10014,1,0.0,-0.42,-0.18,634.0,0.0,1.0,0.0,0.0,1.0,1.0,0.0
cb101,cb101_pain,pain,1,15,10015,1,0.0,-0.91,-0.11,1520.0,0.0,1.0,0.0,0.0,1.0,1.0,0.0
cb101,cb101_pain,pain,1,16,10016,0,1.0,-0.31,-0.32,1215.0,0.0,1.0,0.0,0.0,1.0,0.0,0.0
cb101,cb101_pain,pain,1,17,10017,1,1.0,-0.65,-0.36,1439.0,0.0,1.0,0.0,0.0,1.0,0.0,0.0
cb101,cb101_pain,pain,1,18,10018,0,1.0,-0.3,-0.4,720.0,0.0,1.0,0.0,0.0,1.0,0.0,0.0
cb101,cb101_pain,pain,1,19,10019,1,0.0,-0.26,-0.29,1168.0,0.0,1.0,0.0,0.0,1.0,1.0,0.0
cb101,cb101_pain,pain,1,20,10020,1,1.0,-0.36,-0.32,2565.0,0.0,1.0,0.0,0.0,1.0,0.0,0.0
cb101,cb101_pain,pain,1,21,10021,1,0.0,-0.81,-0.72,760.0,0.0,1.0,0.0,0.0,1.0,1.0,0.0
cb101,cb101_pain,pain,1,22,10022,1,1.0,-0.54,-0.95,1676.0,0.0,1.0,0.0,0.0,1.0,0.0,0.0
cb101,cb101_pain,pain,1,23,10023,1,1.0,-0.59,-0.4,1768.0,0.0,1.0,0.0,0.0,1.0,0.0,0.0
cb101,cb101_pain,pain,1,24,10024,0,1.0,-0.24,-0.29,1425.0,0.0,1.0,0.0,0.0,1.0,0.0,0.0
cb101,cb101_pain,pain,1,25,10025,0,1.0,-0.51,-0.6,942.0,0.0,1.0,0.0,0.0,1.0,0.0,0.0
cb101,cb101_pain,pain,1,26,10026,1,1.0,-0.65,-0.83,1540.0,0.0,1.0,0.0,0.0,1.0,0.0,0.0
cb101,cb101_pain,pain,1,27,10027,1,0.0,-0.98,-0.78,1263.0,0.0,1.0,0.0,0.0,1.0,1.0,0.0
cb101,cb101_pain,pain,1,28,10028,0,1.0,-0.51,-0.56,1020.0,0.0,1.0,0.0,0.0,1.0,0.0,0.0
cb101,cb101_pain,pain,1,29,10029,1,1.0,-0.2,-0.05,620.0,0.0,1.0,0.0,0.0,1.0,0.0,0.0
cb101,cb101_pain,pain,1,30,10030,0,1.0,-0.02,-0.67,1002.0,0.0,1.0,0.0,0.0,1.0,0.0,0.0
cb101,cb101_pain,pain,1,31,10031,1,1.0,-0.84,-0.85,829.0,0.0,1.0,0.0,0.0,1.0,0.0,0.0
cb101,cb101_pain,pain,1,32,10032,1,0.0,-0.49,-0.07,1156.0,0.0,1.0,0.0,0.0,1.0,1.0,0.0
cb101,cb101_pain,pain,1,33,10033,1,1.0,-0.47,-0.37,1660.0,0.0,1.0,0.0,0.0,1.0,0.0,0.0
cb101,cb101_pain,pain,1,34,10034,1,1.0,-0.91,-0.27,1896.0,0.0,1.0,0.0,0.0,1.0,0.0,0.0
cb101,cb101_pain,pain,1,35,10035,0,1.0,-0.42,-0.44,521.0,0.0,1.0,0.0,0.0,1.0,0.0,0.0
cb101,cb101_pain,pain,1,36,10036,1,0.0,-0.55,-0.31,163.0,0.0,1.0,0.0,0.0,1.0,1.0,0.0
cb101,cb101_pain,pain,1,37,10037,0,1.0,-0.7,-0.97,300.0,0.0,1.0,0.0,0.0,1.0,0.0,0.0
cb101,cb101_pain,pain,1,38,10038,0,1.0,-0.09,-0.14,3912.0,0.0,1.0,0.0,0.0,1.0,0.0,0.0
cb101,cb101_pain,pain,1,39,10039,1,0.0,-0.51,-0.23,1220.0,0.0,1.0,0.0,0.0,1.0,1.0,0.0
cb101,cb101_pain,pain,1,40,10040,0,0.0,-0.79,-0.89,2696.0,0.0,1.0,0.0,0.0,1.0,1.0,0.0
cb101,cb101_pain,pain,1,41,10041,1,0.0,-0.86,-0.83,1820.0,0.0,1.0,0.0,0.0,1.0,1.0,0.0
cb101,cb101_pain,pain,1,42,10042,0,0.0,-0.62,-0.4,97.0,0.0,1.0,0.0,0.0,1.0,1.0,0.0
cb101,cb101_pain,pain,1,43,10043,0,0.0,-0.23,-0.36,418.0,0.0,1.0,0.0,0.0,1.0,1.0,0.0
cb101,cb101_pain,pain,1,44,10044,0,0.0,-0.61,-0.65,900.0,0.0,1.0,0.0,0.0,1.0,1.0,0.0
cb101,cb101_pain,pain,1,45,10045,0,0.0,-0.67,-0.74,681.0,0.0,1.0,0.0,0.0,1.0,1.0,0.0
cb101,cb101_pain,pain,1,46,10046,0,0.0,-0.41,-0.73,368.0,0.0,1.0,0.0,0.0,1.0,1.0,0.0
cb101,cb101_pain,pain,1,47,10047,0,1.0,-0.54,-0.96,1933.0,0.0,1.0,0.0,0.0,1.0,0.0,0.0
cb101,cb101_pain,pain,1,48,10048,1,0.0,-0.88,-0.86,1700.0,0.0,1.0,0.0,0.0,1.0,1.0,0.0
cb101,cb101_pain,pain,1,49,10049,1,0.0,-0.66,-0.43,295.0,0.0,1.0,0.0,0.0,1.0,1.0,0.0
cb101,cb101_pain,pain,1,50,10050,1,0.0,-0.79,-0.72,422.0,0.0,1.0,0.0,0.0,1.0,1.0,0.0
cb101,cb101_pain,pain,1,51,10051,0,1.0,-0.13,-0.71,1360.0,0.0,1.0,0.0,0.0,1.0,0.0,0.0
cb101,cb101_pain,pain,1,52,10052,0,0.0,-0.53,-0.78,696.0,0.0,1.0,0.0,0.0,1.0,1.0,0.0
cb101,cb101_pain,pain,1,53,10053,1,0.0,-0.9,-0.57,936.0,0.0,1.0,0.0,0.0,1.0,1.0,0.0
cb101,cb101_pain,pain,1,55,10055,1,0.0,-0.64,-0.02,742.0,0.0,1.0,0.0,0.0,1.0,1.0,0.0
cb101,cb101_pain,pain,1,56,10056,0,0.0,-0.09,-0.99,670.0,0.0,1.0,0.0,0.0,1.0,1.0,0.0
cb101,cb101_pain,pain,1,57,10057,1,0.0,-0.42,-0.21,826.0,0.0,1.0,0.0,0.0,1.0,1.0,0.0
cb101,cb101_pain,pain,1,58,10058,0,0.0,-0.72,-0.83,762.0,0.0,1.0,0.0,0.0,1.0,1.0,0.0
cb101,cb101_pain,pain,1,59,10059,0,0.0,-0.11,-0.37,943.0,0.0,1.0,0.0,0.0,1.0,1.0,0.0
cb101,cb101_pain,pain,1,60,10060,1,1.0,-0.81,-0.67,407.0,0.0,1.0,1.0,0.0,1.0,0.0,0.0
cb101,cb101_pain,pain,1,61,10061,1,0.0,-0.14,-0.12,646.0,0.0,1.0,1.0,0.0,1.0,1.0,0.0
cb101,cb101_pain,pain,1,62,10062,0,1.0,-0.9,-0.78,1066.0,0.0,1.0,1.0,0.0,1.0,0.0,0.0
cb101,cb101_pain,pain,1,63,10063,0,1.0,-0.53,-0.46,2441.0,0.0,1.0,1.0,0.0,1.0,0.0,0.0
cb101,cb101_pain,pain,1,64,10064,0,1.0,-0.42,-0.3,554.0,0.0,1.0,1.0,0.0,1.0,0.0,0.0
cb101,cb101_pain,pain,1,65,10065,1,1.0,-0.65,-0.36,760.0,0.0,1.0,1.0,0.0,1.0,0.0,0.0
cb101,cb101_pain,pain,1,66,10066,1,1.0,-0.49,-0.49,576.0,0.0,1.0,1.0,0.0,1.0,0.0,0.0
cb101,cb101_pain,pain,1,67,10067,1,1.0,-0.1,-0.44,1572.0,0.0,1.0,1.0,0.0,1.0,0.0,0.0
cb101,cb101_pain,pain,1,68,10068,0,1.0,-0.64,-0.7,544.0,0.0,1.0,1.0,0.0,1.0,0.0,0.0
cb101,cb101_pain,pain,1,69,10069,0,1.0,-0.95,-0.68,2014.0,0.0,1.0,1.0,0.0,1.0,0.0,0.0
cb101,cb101_pain,pain,1,70,10070,0,1.0,-0.48,-0.02,1521.0,0.0,1.0,1.0,0.0,1.0,0.0,0.0
cb101,cb101_pain,pain,1,71,10071,0,1.0,-0.61,-0.09,1360.0,0.0,1.0,1.0,0.0,1.0,0.0,0.0
cb101,cb101_pain,pain,1,72,10072,0,1.0,-0.6,-0.47,964.0,0.0,1.0,1.0,0.0,1.0,0.0,0.0
cb101,cb101_pain,pain,1,73,10073,1,1.0,-0.23,-0.78,641.0,0.0,1.0,1.0,0.0,1.0,0.0,0.0
cb101,cb101_pain,pain,1,74,10074,0,0.0,-0.67,-0.82,340.0,0.0,1.0,1.0,0.0,1.0,1.0,0.0
cb101,cb101_pain,pain,1,75,10075,1,1.0,-0.16,-0.64,840.0,0.0,1.0,1.0,0.0,1.0,0.0,0.0
cb101,cb101_pain,pain,1,76,10076,0,0.0,-0.78,-0.37,440.0,0.0,1.0,1.0,0.0,1.0,1.0,0.0
cb101,cb101_pain,pain,1,77,10077,0,1.0,-0.22,-0.89,737.0,0.0,1.0,1.0,0.0,1.0,0.0,0.0
cb101,cb101_pain,pain,1,78,10078,0,1.0,-0.18,-0.26,349.0,0.0,1.0,1.0,0.0,1.0,0.0,0.0
cb101,cb101_pain,pain,1,79,10079,0,1.0,-0.73,-0.08,1000.0,0.0,1.0,1.0,0.0,1.0,0.0,0.0
cb101,cb101_pain,pain,1,80,10080,0,0.0,-0.66,-0.73,1077.0,0.0,1.0,1.0,0.0,1.0,1.0,0.0
cb101,cb101_pain,pain,1,81,10081,0,0.0,-0.17,-0.17,674.0,0.0,1.0,1.0,0.0,1.0,1.0,0.0
cb101,cb101_pain,pain,1,82,10082,1,0.0,-0.63,-0.9,680.0,0.0,1.0,1.0,0.0,1.0,1.0,0.0
cb101,cb101_pain,pain,1,83,10083,1,0.0,-0.66,-0.77,360.0,0.0,1.0,1.0,0.0,1.0,1.0,0.0
cb101,cb101_pain,pain,1,84,10084,1,1.0,-0.27,-0.35,1486.0,0.0,1.0,1.0,0.0,1.0,0.0,0.0
cb101,cb101_pain,pain,1,85,10085,1,0.0,-0.15,-0.04,780.0,0.0,1.0,1.0,0.0,1.0,1.0,0.0
cb101,cb101_pain,pain,1,86,10086,1,0.0,-0.9,-0.96,604.0,0.0,1.0,1.0,0.0,1.0,1.0,0.0
cb101,cb101_pain,pain,1,87,10087,1,0.0,-0.11,-0.18,1072.0,0.0,1.0,1.0,0.0,1.0,1.0,0.0
cb101,cb101_pain,pain,1,88,10088,1,0.0,-0.2,-0.53,163.0,0.0,1.0,1.0,0.0,1.0,1.0,0.0
cb101,cb101_pain,pain,1,89,10089,1,0.0,-0.37,-0.85,1740.0,0.0,1.0,1.0,0.0,1.0,1.0,0.0
cb101,cb101_pain,pain,1,90,10090,1,1.0,-0.46,-0.38,380.0,1.0,0.0,1.0,0.0,1.0,0.0,0.0
cb101,cb101_pain,pain,1,91,10091,1,1.0,-0.24,-0.18,2560.0,1.0,0.0,1.0,0.0,1.0,0.0,0.0
cb101,cb101_pain,pain,1,92,10092,0,1.0,-0.78,-0.82,204.0,1.0,0.0,1.0,0.0,1.0,0.0,0.0
cb101,cb101_pain,pain,1,93,10093,0,1.0,-0.54,-0.59,361.0,1.0,0.0,1.0,0.0,1.0,0.0,0.0
cb101,cb101_pain,pain,1,94,10094,0,1.0,-0.33,-0.36,1270.0,1.0,0.0,1.0,0.0,1.0,0.0,0.0
cb101,cb101_pain,pain,1,95,10095,0,1.0,-0.56,-0.49,747.0,1.0,0.0,1.0,0.0,1.0,0.0,0.0
cb101,cb101_pain,pain,1,96,10096,0,1.0,-0.83,-0.26,604.0,1.0,0.0,1.0,0.0,1.0,0.0,0.0
cb101,cb101_pain,pain,1,97,10097,0,1.0,-0.81,-0.38,556.0,1.0,0.0,1.0,0.0,1.0,0.0,0.0
cb101,cb101_pain,pain,1,98,10098,0,1.0,-0.23,-0.12,455.0,1.0,0.0,1.0,0.0,1.0,0.0,0.0
cb101,cb101_pain,pain,1,99,10099,0,1.0,-0.07,-0.87,800.0,1.0,0.0,1.0,0.0,1.0,0.0,0.0
cb101,cb101_pain,pain,1,100,10100,0,1.0,-0.5,-0.43,1777.0,1.0,0.0,1.0,0.0,1.0,0.0,0.0
cb101,cb101_pain,pain,1,101,10101,0,1.0,-0.47,-0.5,441.0,1.0,0.0,1.0,0.0,1.0,0.0,0.0
cb101,cb101_pain,pain,1,102,10102,0,0.0,-0.35,-0.41,2301.0,1.0,0.0,1.0,0.0,1.0,1.0,0.0
cb101,cb101_pain,pain,1,103,10103,0,1.0,-0.87,-0.09,760.0,1.0,0.0,1.0,0.0,1.0,0.0,0.0
cb101,cb101_pain,pain,1,104,10104,0,1.0,-0.58,-0.2,548.0,1.0,0.0,1.0,0.0,1.0,0.0,0.0
cb101,cb101_pain,pain,1,105,10105,0,1.0,-0.31,-0.88,345.0,1.0,0.0,1.0,0.0,1.0,0.0,0.0
cb101,cb101_pain,pain,1,106,10106,0,1.0,-0.44,-0.56,3985.0,1.0,0.0,1.0,0.0,1.0,0.0,0.0
cb101,cb101_pain,pain,1,107,10107,0,1.0,-0.85,-0.31,1362.0,1.0,0.0,1.0,0.0,1.0,0.0,0.0
cb101,cb101_pain,pain,1,108,10108,0,1.0,-0.31,-0.9,1118.0,1.0,0.0,1.0,0.0,1.0,0.0,0.0
cb101,cb101_pain,pain,1,109,10109,0,1.0,-0.76,-0.8,380.0,1.0,0.0,1.0,0.0,1.0,0.0,0.0
cb101,cb101_pain,pain,1,110,10110,0,1.0,-0.04,-0.78,753.0,1.0,0.0,1.0,0.0,1.0,0.0,0.0
cb101,cb101_pain,pain,1,111,10111,0,1.0,-0.28,-0.6,859.0,1.0,0.0,1.0,0.0,1.0,0.0,0.0
cb101,cb101_pain,pain,1,112,10112,0,0.0,-0.99,-0.56,699.0,1.0,0.0,1.0,0.0,1.0,1.0,0.0
cb101,cb101_pain,pain,1,113,10113,0,1.0,-0.45,-0.31,600.0,1.0,0.0,1.0,0.0,1.0,0.0,0.0
cb101,cb101_pain,pain,1,114,10114,0,1.0,-0.16,-0.55,1360.0,1.0,0.0,1.0,0.0,1.0,0.0,0.0
cb101,cb101_pain,pain,1,115,10115,1,0.0,-0.89,-0.12,1329.0,1.0,0.0,1.0,0.0,1.0,1.0,0.0
cb101,cb101_pain,pain,1,116,10116,0,1.0,-0.86,-0.49,300.0,1.0,0.0,1.0,0.0,1.0,0.0,0.0
cb101,cb101_pain,pain,1,117,10117,0,1.0,-0.62,-0.69,663.0,1.0,0.0,1.0,0.0,1.0,0.0,0.0
cb101,cb101_pain,pain,1,118,10118,0,0.0,-0.26,-0.49,2203.0,1.0,0.0,1.0,0.0,1.0,1.0,0.0
cb101,cb101_pain,pain,1,119,10119,0,1.0,-0.76,-0.75,660.0,1.0,0.0,1.0,0.0,1.0,0.0,0.0
cb101,cb101_pain,pain,1,120,10120,0,1.0,-0.9,-0.22,111.0,1.0,0.0,2.0,0.0,1.0,0.0,0.0
cb101,cb101_pain,pain,1,121,10121,1,1.0,-0.76,-0.26,2056.0,1.0,0.0,2.0,0.0,1.0,0.0,0.0
cb101,cb101_pain,pain,1,122,10122,0,1.0,-0.68,-0.11,860.0,1.0,0.0,2.0,0.0,1.0,0.0,0.0
cb101,cb101_pain,pain,1,123,10123,0,0.0,-0.82,-0.71,979.0,1.0,0.0,2.0,0.0,1.0,1.0,0.0
cb101,cb101_pain,pain,1,124,10124,0,1.0,-0.95,-0.86,567.0,1.0,0.0,2.0,0.0,1.0,0.0,0.0
cb101,cb101_pain,pain,1,125,10125,0,1.0,-0.88,-0.79,980.0,1.0,0.0,2.0,0.0,1.0,0.0,0.0
cb101,cb101_pain,pain,1,126,10126,0,1.0,-0.4,-0.75,318.0,1.0,0.0,2.0,0.0,1.0,0.0,0.0
cb101,cb101_pain,pain,1,127,10127,0,1.0,-0.94,-0.11,787.0,1.0,0.0,2.0,0.0,1.0,0.0,0.0
cb101,cb101_pain,pain,1,128,10128,0,0.0,-0.44,-0.53,1588.0,1.0,0.0,2.0,0.0,1.0,1.0,0.0
cb101,cb101_pain,pain,1,129,10129,0,1.0,-0.47,-0.85,1221.0,1.0,0.0,2.0,0.0,1.0,0.0,0.0
cb101,cb101_pain,pain,1,130,10130,0,0.0,-0.32,-0.85,1501.0,1.0,0.0,2.0,0.0,1.0,1.0,0.0
cb101,cb101_pain,pain,1,131,10131,0,1.0,-0.68,-0.38,1109.0,1.0,0.0,2.0,0.0,1.0,0.0,0.0
cb101,cb101_pain,pain,1,132,10132,0,1.0,-0.93,-0.28,468.0,1.0,0.0,2.0,0.0,1.0,0.0,0.0
cb101,cb101_pain,pain,1,133,10133,0,1.0,-0.95,-0.13,2160.0,1.0,0.0,2.0,0.0,1.0,0.0,0.0
cb101,cb101_pain,pain,1,134,10134,0,1.0,-0.6,-0.69,1198.0,1.0,0.0,2.0,0.0,1.0,0.0,0.0
cb101,cb101_pain,pain,1,135,10135,1,0.0,-0.95,-0.56,1716.0,1.0,0.0,2.0,0.0,1.0,1.0,0.0
cb101,cb101_pain,pain,1,136,10136,1,1.0,-0.41,-0.02,1019.0,1.0,0.0,2.0,0.0,1.0,0.0,0.0
cb101,cb101_pain,pain,1,137,10137,1,1.0,-0.05,-0.42,935.0,1.0,0.0,2.0,0.0,1.0,0.0,0.0
cb101,cb101_pain,pain,1,138,10138,1,0.0,-0.3,-0.44,2403.0,1.0,0.0,2.0,0.0,1.0,1.0,0.0
cb101,cb101_pain,pain,1,139,10139,1,1.0,-0.54,-0.79,703.0,1.0,0.0,2.0,0.0,1.0,0.0,0.0
cb101,cb101_pain,pain,1,140,10140,1,1.0,-0.87,-0.83,685.0,1.0,0.0,2.0,0.0,1.0,0.0,0.0
cb101,cb101_pain,pain,1,141,10141,0,1.0,-0.44,-0.59,413.0,1.0,0.0,2.0,0.0,1.0,0.0,0.0
cb101,cb101_pain,pain,1,142,10142,0,0.0,-0.1,-0.15,414.0,1.0,0.0,2.0,0.0,1.0,1.0,0.0
cb101,cb101_pain,pain,1,143,10143,0,1.0,-0.15,-0.6,1183.0,1.0,0.0,2.0,0.0,1.0,0.0,0.0
cb101,cb101_pain,pain,1,144,10144,0,0.0,-0.25,-0.93,518.0,1.0,0.0,2.0,0.0,1.0,1.0,0.0
cb101,cb101_pain,pain,1,145,10145,1,1.0,-0.23,-0.43,346.0,1.0,0.0,2.0,0.0,1.0,0.0,0.0
cb101,cb101_pain,pain,1,146,10146,1,1.0,-0.87,-0.22,632.0,1.0,0.0,2.0,0.0,1.0,0.0,0.0
cb101,cb101_pain,pain,1,147,10147,0,0.0,-0.77,-0.27,376.0,1.0,0.0,2.0,0.0,1.0,1.0,0.0
cb101,cb101_pain,pain,1,148,10148,1,1.0,-0.35,-0.99,580.0,1.0,0.0,2.0,0.0,1.0,0.0,0.0
cb101,cb101_pain,pain,1,149,10149,0,0.0,-0.39,-0.49,509.0,1.0,0.0,2.0,0.0,1.0,1.0,0.0
cb101,cb101_pain,pain,1,150,10150,1,1.0,-0.6,-0.83,1078.0,1.0,0.0,2.0,0.0,1.0,0.0,0.0
cb101,cb101_pain,pain,1,151,10151,0,0.0,-0.54,-0.61,838.0,1.0,0.0,2.0,0.0,1.0,1.0,0.0
cb101,cb101_pain,pain,1,152,10152,0,1.0,-0.34,-0.82,660.0,1.0,0.0,2.0,0.0,1.0,0.0,0.0
cb101,cb101_pain,pain,1,153,10153,1,1.0,-0.86,-0.96,523.0,1.0,0.0,2.0,0.0,1.0,0.0,0.0
cb101,cb101_pain,pain,1,154,10154,1,1.0,-0.27,-0.65,540.0,1.0,0.0,2.0,0.0,1.0,0.0,0.0
cb101,cb101_pain,pain,1,155,10155,0,0.0,-0.93,-0.63,1277.0,1.0,0.0,2.0,0.0,1.0,1.0,0.0
cb101,cb101_pain,pain,1,156,10156,1,1.0,-0.4,-0.65,497.0,1.0,0.0,2.0,0.0,1.0,0.0,0.0
cb101,cb101_pain,pain,1,157,10157,1,1.0,-0.69,-0.07,508.0,1.0,0.0,2.0,0.0,1.0,0.0,0.0
cb101,cb101_pain,pain,1,158,10158,0,0.0,-0.28,-0.94,478.0,1.0,0.0,2.0,0.0,1.0,1.0,0.0
cb101,cb101_pain,pain,1,159,10159,1,1.0,-0.04,-0.9,359.0,1.0,0.0,2.0,0.0,1.0,0.0,0.0
cb101,cb101_pain,pain,1,160,10160,0,1.0,-0.94,-0.7,3191.0,1.0,0.0,2.0,0.0,1.0,0.0,0.0
cb101,cb101_pain,pain,1,161,10161,1,1.0,-0.54,-0.32,2380.0,1.0,0.0,2.0,0.0,1.0,0.0,0.0
cb101,cb101_pain,pain,1,162,10162,0,1.0,-0.67,-0.35,421.0,1.0,0.0,2.0,0.0,1.0,0.0,0.0
cb101,cb101_pain,pain,1,163,10163,0,1.0,-0.61,-0.09,320.0,1.0,0.0,2.0,0.0,1.0,0.0,0.0
cb101,cb101_pain,pain,1,164,10164,0,1.0,-0.75,-0.52,844.0,1.0,0.0,2.0,0.0,1.0,0.0,0.0
cb101,cb101_pain,pain,1,165,10165,0,0.0,-0.98,-0.61,58.0,1.0,0.0,2.0,0.0,1.0,1.0,0.0
cb101,cb101_pain,pain,1,166,10166,1,1.0,-0.73,-0.73,305.0,1.0,0.0,2.0,0.0,1.0,0.0,0.0
cb101,cb101_pain,pain,1,167,10167,0,1.0,-0.86,-0.01,433.0,1.0,0.0,2.0,0.0,1.0,0.0,0.0
cb101,cb101_pain,pain,1,168,10168,0,0.0,-0.99,-0.18,1982.0,1.0,0.0,2.0,0.0,1.0,1.0,0.0
cb101,cb101_pain,pain,1,169,10169,0,1.0,-0.76,-0.47,280.0,1.0,0.0,2.0,0.0,1.0,0.0,0.0
cb101,cb101_pain,pain,1,170,10170,0,1.0,-0.15,-0.37,654.0,1.0,0.0,2.0,0.0,1.0,0.0,0.0
cb101,cb101_pain,pain,1,171,10171,1,1.0,-0.33,-0.95,3128.0,1.0,0.0,2.0,0.0,1.0,0.0,0.0
cb101,cb101_pain,pain,1,172,10172,0,0.0,-0.04,-0.93,580.0,1.0,0.0,2.0,0.0,1.0,1.0,0.0
cb101,cb101_pain,pain,1,173,10173,0,0.0,-0.7,-0.96,517.0,1.0,0.0,2.0,0.0,1.0,1.0,0.0
cb101,cb101_pain,pain,1,174,10174,0,0.0,-0.96,-0.21,2080.0,1.0,0.0,2.0,0.0,1.0,1.0,0.0
cb101,cb101_pain,pain,1,175,10175,1,0.0,-0.73,-0.17,826.0,1.0,0.0,2.0,0.0,1.0,1.0,0.0
cb101,cb101_pain,pain,1,176,10176,1,1.0,-0.74,-0.58,372.0,1.0,0.0,2.0,0.0,1.0,0.0,0.0
cb101,cb101_pain,pain,1,177,10177,0,1.0,-0.18,-0.6,899.0,1.0,0.0,2.0,0.0,1.0,0.0,0.0
cb101,cb101_pain,pain,1,178,10178,0,1.0,-0.36,-0.7,552.0,1.0,0.0,2.0,0.0,1.0,0.0,0.0
cb101,cb101_pain,pain,1,179,10179,0,1.0,-0.58,-0.31,1333.0,1.0,0.0,2.0,0.0,1.0,0.0,0.0
cb103,cb103_reward,reward,0,0,0,0,1.0,0.01,0.2,399.0,0.0,1.0,0.0,1.0,0.0,1.0,1.0
cb103,cb103_reward,reward,0,1,1,1,1.0,0.12,0.43,3209.0,0.0,1.0,0.0,1.0,0.0,1.0,0.0
cb103,cb103_reward,reward,0,2,2,1,1.0,0.9,0.21,346.0,0.0,1.0,0.0,1.0,0.0,1.0,0.0
cb103,cb103_reward,reward,0,3,3,1,0.0,0.62,0.26,1488.0,0.0,1.0,0.0,1.0,0.0,0.0,0.0
cb103,cb103_reward,reward,0,4,4,0,1.0,0.19,0.95,1171.0,0.0,1.0,0.0,1.0,0.0,1.0,0.0
cb103,cb103_reward,reward,0,5,5,1,1.0,0.61,0.1,383.0,0.0,1.0,0.0,1.0,0.0,1.0,0.0
cb103,cb103_reward,reward,0,6,6,1,1.0,0.12,0.9,319.0,0.0,1.0,0.0,1.0,0.0,1.0,0.0
cb103,cb103_reward,reward,0,7,7,1,1.0,0.99,0.47,1325.0,0.0,1.0,0.0,1.0,0.0,1.0,0.0
cb103,cb103_reward,reward,0,8,8,1,1.0,0.06,0.08,823.0,0.0,1.0,0.0,1.0,0.0,1.0,0.0
cb103,cb103_reward,reward,0,9,9,1,1.0,0.81,0.29,284.0,0.0,1.0,0.0,1.0,0.0,1.0,0.0
cb103,cb103_reward,reward,0,10,10,1,1.0,0.34,0.49,840.0,0.0,1.0,0.0,1.0,0.0,1.0,0.0
cb103,cb103_reward,reward,0,11,11,1,1.0,0.99,0.74,500.0,0.0,1.0,0.0,1.0,0.0,1.0,0.0
cb103,cb103_reward,reward,0,12,12,1,1.0,0.87,0.8,1057.0,0.0,1.0,0.0,1.0,0.0,1.0,0.0
cb103,cb103_reward,reward,0,13,13,1,1.0,0.28,0.02,351.0,0.0,1.0,0.0,1.0,0.0,1.0,0.0
cb103,cb103_reward,reward,0,14,14,1,1.0,0.81,0.4,474.0,0.0,1.0,0.0,1.0,0.0,1.0,0.0
cb103,cb103_reward,reward,0,15,15,1,1.0,0.78,0.45,320.0,0.0,1.0,0.0,1.0,0.0,1.0,0.0
cb103,cb103_reward,reward,0,16,16,1,0.0,0.28,0.28,381.0,0.0,1.0,0.0,1.0,0.0,0.0,0.0
cb103,cb103_reward,reward,0,17,17,1,0.0,0.19,0.27,280.0,0.0,1.0,0.0,1.0,0.0,0.0,0.0
cb103,cb103_reward,reward,0,18,18,1,0.0,0.28,0.32,264.0,0.0,1.0,0.0,1.0,0.0,0.0,0.0
cb103,cb103_reward,reward,0,19,19,0,1.0,0.17,0.85,317.0,0.0,1.0,0.0,1.0,0.0,1.0,0.0
cb103,cb103_reward,reward,0,20,20,1,0.0,0.94,0.39,328.0,0.0,1.0,0.0,1.0,0.0,0.0,0.0
cb103,cb103_reward,reward,0,21,21,1,1.0,0.43,0.72,535.0,0.0,1.0,0.0,1.0,0.0,1.0,0.0
cb103,cb103_reward,reward,0,22,22,0,0.0,0.59,0.35,255.0,0.0,1.0,0.0,1.0,0.0,0.0,0.0
cb103,cb103_reward,reward,0,23,23,0,0.0,0.83,0.85,288.0,0.0,1.0,0.0,1.0,0.0,0.0,0.0
cb103,cb103_reward,reward,0,24,24,0,0.0,0.81,0.89,540.0,0.0,1.0,0.0,1.0,0.0,0.0,0.0
cb103,cb103_reward,reward,0,25,25,0,0.0,0.99,0.93,763.0,0.0,1.0,0.0,1.0,0.0,0.0,0.0
cb103,cb103_reward,reward,0,26,26,0,0.0,0.5,0.42,1160.0,0.0,1.0,0.0,1.0,0.0,0.0,0.0
cb103,cb103_reward,reward,0,27,27,0,1.0,0.73,0.46,883.0,0.0,1.0,0.0,1.0,0.0,1.0,0.0
cb103,cb103_reward,reward,0,28,28,0,0.0,0.51,0.5,651.0,0.0,1.0,0.0,1.0,0.0,0.0,0.0
cb103,cb103_reward,reward,0,29,29,0,0.0,0.03,0.74,840.0,0.0,1.0,0.0,1.0,0.0,0.0,0.0
cb103,cb103_reward,reward,0,30,30,0,0.0,0.32,0.85,722.0,0.0,1.0,0.0,1.0,0.0,0.0,0.0
cb103,cb103_reward,reward,0,32,32,0,1.0,0.25,0.12,2346.0,0.0,1.0,0.0,1.0,0.0,1.0,0.0
cb103,cb103_reward,reward,0,33,33,1,0.0,0.46,0.52,860.0,0.0,1.0,0.0,1.0,0.0,0.0,0.0
cb103,cb103_reward,reward,0,34,34,0,0.0,0.12,0.87,322.0,0.0,1.0,0.0,1.0,0.0,0.0,0.0
cb103,cb103_reward,reward,0,35,35,0,0.0,0.76,0.29,1070.0,0.0,1.0,0.0,1.0,0.0,0.0,0.0
cb103,cb103_reward,reward,0,36,36,0,1.0,0.82,0.42,322.0,0.0,1.0,0.0,1.0,0.0,1.0,0.0
cb103,cb103_reward,reward,0,37,37,0,0.0,0.39,0.65,580.0,0.0,1.0,0.0,1.0,0.0,0.0,0.0
cb103,cb103_reward,reward,0,38,38,0,0.0,0.15,0.15,356.0,0.0,1.0,0.0,1.0,0.0,0.0,0.0
cb103,cb103_reward,reward,0,39,39,1,1.0,0.87,0.42,1080.0,0.0,1.0,0.0,1.0,0.0,1.0,0.0
cb103,cb103_reward,reward,0,40,40,0,1.0,0.24,0.26,504.0,0.0,1.0,0.0,1.0,0.0,1.0,0.0
cb103,cb103_reward,reward,0,41,41,1,1.0,0.4,0.5,300.0,0.0,1.0,0.0,1.0,0.0,1.0,0.0
cb103,cb103_reward,reward,0,42,42,1,1.0,0.66,0.61,322.0,0.0,1.0,0.0,1.0,0.0,1.0,0.0
cb103,cb103_reward,reward,0,43,43,1,1.0,0.95,0.14,480.0,0.0,1.0,0.0,1.0,0.0,1.0,0.0
cb103,cb103_reward,reward,0,44,44,1,1.0,0.33,0.11,311.0,0.0,1.0,0.0,1.0,0.0,1.0,0.0
cb103,cb103_reward,reward,0,45,45,0,1.0,0.4,0.68,951.0,0.0,1.0,0.0,1.0,0.0,1.0,0.0
cb103,cb103_reward,reward,0,46,46,1,1.0,0.45,0.3,920.0,0.0,1.0,0.0,1.0,0.0,1.0,0.0
cb103,cb103_reward,reward,0,47,47,1,0.0,0.52,0.7,320.0,0.0,1.0,0.0,1.0,0.0,0.0,0.0
cb103,cb103_reward,reward,0,48,48,1,1.0,0.79,0.64,2396.0,0.0,1.0,0.0,1.0,0.0,1.0,0.0
cb103,cb103_reward,reward,0,49,49,1,1.0,0.67,0.19,316.0,0.0,1.0,0.0,1.0,0.0,1.0,0.0
cb103,cb103_reward,reward,0,50,50,1,1.0,0.11,0.22,320.0,0.0,1.0,0.0,1.0,0.0,1.0,0.0
cb103,cb103_reward,reward,0,51,51,0,0.0,0.1,0.21,1197.0,0.0,1.0,0.0,1.0,0.0,0.0,0.0
cb103,cb103_reward,reward,0,52,52,1,1.0,0.76,0.13,320.0,0.0,1.0,0.0,1.0,0.0,1.0,0.0
cb103,cb103_reward,reward,0,53,53,1,1.0,0.28,0.61,436.0,0.0,1.0,0.0,1.0,0.0,1.0,0.0
cb103,cb103_reward,reward,0,54,54,1,0.0,0.56,0.74,509.0,0.0,1.0,0.0,1.0,0.0,0.0,0.0
cb103,cb103_reward,reward,0,55,55,1,1.0,0.39,0.34,336.0,0.0,1.0,0.0,1.0,0.0,1.0,0.0
cb103,cb103_reward,reward,0,56,56,1,1.0,0.89,0.18,374.0,0.0,1.0,0.0,1.0,0.0,1.0,0.0
cb103,cb103_reward,reward,0,57,57,1,1.0,0.54,0.78,394.0,0.0,1.0,0.0,1.0,0.0,1.0,0.0
cb103,cb103_reward,reward,0,58,58,0,1.0,0.02,0.87,341.0,0.0,1.0,0.0,1.0,0.0,1.0,0.0
cb103,cb103_reward,reward,0,59,59,1,1.0,0.57,0.17,359.0,0.0,1.0,0.0,1.0,0.0,1.0,0.0
cb103,cb103_reward,reward,0,60,60,1,0.0,0.22,0.35,603.0,0.0,1.0,1.0,1.0,0.0,0.0,0.0
cb103,cb103_reward,reward,0,61,61,1,1.0,0.88,0.21,320.0,0.0,1.0,1.0,1.0,0.0,1.0,0.0
cb103,cb103_reward,reward,0,62,62,1,0.0,0.19,0.46,391.0,0.0,1.0,1.0,1.0,0.0,0.0,0.0
cb103,cb103_reward,reward,0,63,63,1,0.0,0.53,0.06,558.0,0.0,1.0,1.0,1.0,0.0,0.0,0.0
cb103,cb103_reward,reward,0,64,64,1,0.0,0.55,0.69,359.0,0.0,1.0,1.0,1.0,0.0,0.0,0.0
cb103,cb103_reward,reward,0,65,65,0,0.0,0.89,0.81,403.0,0.0,1.0,1.0,1.0,0.0,0.0,0.0
cb103,cb103_reward,reward,0,66,66,0,0.0,0.54,0.83,346.0,0.0,1.0,1.0,1.0,0.0,0.0,0.0
cb103,cb103_reward,reward,0,67,67,0,0.0,0.7,0.39,941.0,0.0,1.0,1.0,1.0,0.0,0.0,0.0
cb103,cb103_reward,reward,0,68,68,0,0.0,0.36,0.5,444.0,0.0,1.0,1.0,1.0,0.0,0.0,0.0
cb103,cb103_reward,reward,0,69,69,0,0.0,0.17,0.8,1342.0,0.0,1.0,1.0,1.0,0.0,0.0,0.0
cb103,cb103_reward,reward,0,70,70,0,0.0,0.3,0.44,760.0,0.0,1.0,1.0,1.0,0.0,0.0,0.0
cb103,cb103_reward,reward,0,71,71,0,0.0,0.59,0.22,387.0,0.0,1.0,1.0,1.0,0.0,0.0,0.0
cb103,cb103_reward,reward,0,72,72,0,0.0,0.65,0.75,468.0,0.0,1.0,1.0,1.0,0.0,0.0,0.0
cb103,cb103_reward,reward,0,73,73,0,0.0,0.71,0.34,340.0,0.0,1.0,1.0,1.0,0.0,0.0,0.0
cb103,cb103_reward,reward,0,74,74,0,1.0,0.53,0.78,987.0,0.0,1.0,1.0,1.0,0.0,1.0,0.0
cb103,cb103_reward,reward,0,75,75,1,0.0,0.83,0.59,357.0,0.0,1.0,1.0,1.0,0.0,0.0,0.0
cb103,cb103_reward,reward,0,76,76,0,1.0,0.21,0.71,313.0,0.0,1.0,1.0,1.0,0.0,1.0,0.0
cb103,cb103_reward,reward,0,77,77,0,0.0,0.78,0.78,724.0,0.0,1.0,1.0,1.0,0.0,0.0,0.0
cb103,cb103_reward,reward,0,78,78,1,0.0,0.83,0.47,379.0,0.0,1.0,1.0,1.0,0.0,0.0,0.0
cb103,cb103_reward,reward,0,79,79,0,0.0,0.47,0.59,1264.0,0.0,1.0,1.0,1.0,0.0,0.0,0.0
cb103,cb103_reward,reward,0,80,80,0,1.0,0.19,0.02,1038.0,0.0,1.0,1.0,1.0,0.0,1.0,0.0
cb103,cb103_reward,reward,0,81,81,0,1.0,0.36,0.04,422.0,0.0,1.0,1.0,1.0,0.0,1.0,0.0
cb103,cb103_reward,reward,0,82,82,0,1.0,0.07,0.36,760.0,0.0,1.0,1.0,1.0,0.0,1.0,0.0
cb103,cb103_reward,reward,0,83,83,1,1.0,0.62,0.72,299.0,0.0,1.0,1.0,1.0,0.0,1.0,0.0
cb103,cb103_reward,reward,0,84,84,1,0.0,0.4,0.32,60.0,0.0,1.0,1.0,1.0,0.0,0.0,0.0
cb103,cb103_reward,reward,0,85,85,0,1.0,0.35,0.62,1255.0,0.0,1.0,1.0,1.0,0.0,1.0,0.0
cb103,cb103_reward,reward,0,86,86,1,1.0,0.9,0.91,415.0,0.0,1.0,1.0,1.0,0.0,1.0,0.0
cb103,cb103_reward,reward,0,87,87,1,1.0,0.59,0.17,338.0,0.0,1.0,1.0,1.0,0.0,1.0,0.0
cb103,cb103_reward,reward,0,88,88,1,1.0,0.39,0.32,2079.0,0.0,1.0,1.0,1.0,0.0,1.0,0.0
cb103,cb103_reward,reward,0,89,89,1,1.0,0.79,0.77,320.0,0.0,1.0,1.0,1.0,0.0,1.0,0.0
cb103,cb103_reward,reward,0,90,90,0,0.0,0.33,0.61,3168.0,1.0,0.0,1.0,1.0,0.0,0.0,0.0
cb103,cb103_reward,reward,0,91,91,0,0.0,0.48,0.14,1571.0,1.0,0.0,1.0,1.0,0.0,0.0,0.0
cb103,cb103_reward,reward,0,92,92,0,0.0,0.19,0.9,706.0,1.0,0.0,1.0,1.0,0.0,0.0,0.0
cb103,cb103_reward,reward,0,93,93,0,0.0,0.34,0.43,470.0,1.0,0.0,1.0,1.0,0.0,0.0,0.0
cb103,cb103_reward,reward,0,94,94,0,0.0,0.51,0.87,535.0,1.0,0.0,1.0,1.0,0.0,0.0,0.0
cb103,cb103_reward,reward,0,95,95,0,0.0,0.22,0.55,271.0,1.0,0.0,1.0,1.0,0.0,0.0,0.0
cb103,cb103_reward,reward,0,96,96,0,0.0,0.95,0.62,276.0,1.0,0.0,1.0,1.0,0.0,0.0,0.0
cb103,cb103_reward,reward,0,97,97,0,0.0,0.21,0.07,1687.0,1.0,0.0,1.0,1.0,0.0,0.0,0.0
cb103,cb103_reward,reward,0,98,98,0,0.0,0.55,0.05,500.0,1.0,0.0,1.0,1.0,0.0,0.0,0.0
cb103,cb103_reward,reward,0,99,99,0,0.0,0.91,0.24,857.0,1.0,0.0,1.0,1.0,0.0,0.0,0.0
cb103,cb103_reward,reward,0,100,100,0,0.0,0.65,0.12,341.0,1.0,0.0,1.0,1.0,0.0,0.0,0.0
cb103,cb103_reward,reward,0,101,101,0,0.0,0.3,0.69,704.0,1.0,0.0,1.0,1.0,0.0,0.0,0.0
cb103,cb103_reward,reward,0,102,102,0,1.0,0.27,0.3,381.0,1.0,0.0,1.0,1.0,0.0,1.0,0.0
cb103,cb103_reward,reward,0,103,103,1,0.0,0.42,0.94,352.0,1.0,0.0,1.0,1.0,0.0,0.0,0.0
cb103,cb103_reward,reward,0,104,104,0,0.0,0.33,0.97,1224.0,1.0,0.0,1.0,1.0,0.0,0.0,0.0
cb103,cb103_reward,reward,0,105,105,0,0.0,0.51,0.7,274.0,1.0,0.0,1.0,1.0,0.0,0.0,0.0
cb103,cb103_reward,reward,0,106,106,0,0.0,0.71,0.84,300.0,1.0,0.0,1.0,1.0,0.0,0.0,0.0
cb103,cb103_reward,reward,0,107,107,0,0.0,0.29,0.09,335.0,1.0,0.0,1.0,1.0,0.0,0.0,0.0
cb103,cb103_reward,reward,0,108,108,0,0.0,0.52,0.18,300.0,1.0,0.0,1.0,1.0,0.0,0.0,0.0
cb103,cb103_reward,reward,0,109,109,0,0.0,0.24,0.88,779.0,1.0,0.0,1.0,1.0,0.0,0.0,0.0
cb103,cb103_reward,reward,0,110,110,0,0.0,0.38,0.88,794.0,1.0,0.0,1.0,1.0,0.0,0.0,0.0
cb103,cb103_reward,reward,0,111,111,0,0.0,0.2,0.59,480.0,1.0,0.0,1.0,1.0,0.0,0.0,0.0
cb103,cb103_reward,reward,0,112,112,0,1.0,0.1,0.84,380.0,1.0,0.0,1.0,1.0,0.0,1.0,0.0
cb103,cb103_reward,reward,0,113,113,0,0.0,0.69,0.73,389.0,1.0,0.0,1.0,1.0,0.0,0.0,0.0
cb103,cb103_reward,reward,0,114,114,0,0.0,0.18,1.0,379.0,1.0,0.0,1.0,1.0,0.0,0.0,0.0
cb103,cb103_reward,reward,0,115,115,0,1.0,0.86,0.57,339.0,1.0,0.0,1.0,1.0,0.0,1.0,0.0
cb103,cb103_reward,reward,0,116,116,0,0.0,0.41,0.56,294.0,1.0,0.0,1.0,1.0,0.0,0.0,0.0
cb103,cb103_reward,reward,0,117,117,0,0.0,0.77,0.84,340.0,1.0,0.0,1.0,1.0,0.0,0.0,0.0
cb103,cb103_reward,reward,0,118,118,0,1.0,0.99,0.16,281.0,1.0,0.0,1.0,1.0,0.0,1.0,0.0
cb103,cb103_reward,reward,0,119,119,0,0.0,0.53,0.94,391.0,1.0,0.0,1.0,1.0,0.0,0.0,0.0
cb103,cb103_reward,reward,0,120,120,0,0.0,0.72,0.34,539.0,1.0,0.0,2.0,1.0,0.0,0.0,0.0
cb103,cb103_reward,reward,0,121,121,0,0.0,0.76,0.56,912.0,1.0,0.0,2.0,1.0,0.0,0.0,0.0
cb103,cb103_reward,reward,0,122,122,1,0.0,0.92,0.25,777.0,1.0,0.0,2.0,1.0,0.0,0.0,0.0
cb103,cb103_reward,reward,0,123,123,0,1.0,0.41,0.61,429.0,1.0,0.0,2.0,1.0,0.0,1.0,0.0
cb103,cb103_reward,reward,0,124,124,0,0.0,0.97,0.8,900.0,1.0,0.0,2.0,1.0,0.0,0.0,0.0
cb103,cb103_reward,reward,0,125,125,0,0.0,0.75,0.25,318.0,1.0,0.0,2.0,1.0,0.0,0.0,0.0
cb103,cb103_reward,reward,0,126,126,0,0.0,0.91,0.43,603.0,1.0,0.0,2.0,1.0,0.0,0.0,0.0
cb103,cb103_reward,reward,0,127,127,1,0.0,0.15,0.22,382.0,1.0,0.0,2.0,1.0,0.0,0.0,0.0
cb103,cb103_reward,reward,0,128,128,1,1.0,0.19,0.64,315.0,1.0,0.0,2.0,1.0,0.0,1.0,0.0
cb103,cb103_reward,reward,0,129,129,0,0.0,0.09,0.15,320.0,1.0,0.0,2.0,1.0,0.0,0.0,0.0
cb103,cb103_reward,reward,0,130,130,0,1.0,0.58,0.39,620.0,1.0,0.0,2.0,1.0,0.0,1.0,0.0
cb103,cb103_reward,reward,0,131,131,0,0.0,0.85,0.32,287.0,1.0,0.0,2.0,1.0,0.0,0.0,0.0
cb103,cb103_reward,reward,0,132,132,1,0.0,0.94,0.51,328.0,1.0,0.0,2.0,1.0,0.0,0.0,0.0
cb103,cb103_reward,reward,0,133,133,0,0.0,0.33,0.79,559.0,1.0,0.0,2.0,1.0,0.0,0.0,0.0
cb103,cb103_reward,reward,0,134,134,0,0.0,0.51,0.5,295.0,1.0,0.0,2.0,1.0,0.0,0.0,0.0
cb103,cb103_reward,reward,0,135,135,1,1.0,0.63,0.2,785.0,1.0,0.0,2.0,1.0,0.0,1.0,0.0
cb103,cb103_reward,reward,0,136,136,0,0.0,0.51,0.9,500.0,1.0,0.0,2.0,1.0,0.0,0.0,0.0
cb103,cb103_reward,reward,0,137,137,0,0.0,0.64,0.73,364.0,1.0,0.0,2.0,1.0,0.0,0.0,0.0
cb103,cb103_reward,reward,0,138,138,0,1.0,0.47,0.7,660.0,1.0,0.0,2.0,1.0,0.0,1.0,0.0
cb103,cb103_reward,reward,0,139,139,0,0.0,0.52,0.77,702.0,1.0,0.0,2.0,1.0,0.0,0.0,0.0
cb103,cb103_reward,reward,0,140,140,0,0.0,0.58,0.25,305.0,1.0,0.0,2.0,1.0,0.0,0.0,0.0
cb103,cb103_reward,reward,0,141,141,0,0.0,0.93,0.82,308.0,1.0,0.0,2.0,1.0,0.0,0.0,0.0
cb103,cb103_reward,reward,0,142,142,0,1.0,0.43,0.91,573.0,1.0,0.0,2.0,1.0,0.0,1.0,0.0
cb103,cb103_reward,reward,0,143,143,1,0.0,0.17,0.42,802.0,1.0,0.0,2.0,1.0,0.0,0.0,0.0
cb103,cb103_reward,reward,0,144,144,0,1.0,0.2,0.35,402.0,1.0,0.0,2.0,1.0,0.0,1.0,0.0
cb103,cb103_reward,reward,0,145,145,1,0.0,0.61,0.58,509.0,1.0,0.0,2.0,1.0,0.0,0.0,0.0
cb103,cb103_reward,reward,0,146,146,0,0.0,0.66,0.4,409.0,1.0,0.0,2.0,1.0,0.0,0.0,0.0
cb103,cb103_reward,reward,0,147,147,0,1.0,0.29,0.64,340.0,1.0,0.0,2.0,1.0,0.0,1.0,0.0
cb103,cb103_reward,reward,0,148,148,1,0.0,0.97,0.34,364.0,1.0,0.0,2.0,1.0,0.0,0.0,0.0
cb103,cb103_reward,reward,0,149,149,0,1.0,0.85,0.47,263.0,1.0,0.0,2.0,1.0,0.0,1.0,0.0
cb103,cb103_reward,reward,0,150,150,1,0.0,0.96,0.71,598.0,1.0,0.0,2.0,1.0,0.0,0.0,0.0
cb103,cb103_reward,reward,0,151,151,1,1.0,0.27,0.75,522.0,1.0,0.0,2.0,1.0,0.0,1.0,0.0
cb103,cb103_reward,reward,0,152,152,0,0.0,0.86,0.9,500.0,1.0,0.0,2.0,1.0,0.0,0.0,0.0
cb103,cb103_reward,reward,0,153,153,1,0.0,0.83,0.59,427.0,1.0,0.0,2.0,1.0,0.0,0.0,0.0
cb103,cb103_reward,reward,0,154,154,0,0.0,0.95,0.18,421.0,1.0,0.0,2.0,1.0,0.0,0.0,0.0
cb103,cb103_reward,reward,0,155,155,0,1.0,0.29,0.21,300.0,1.0,0.0,2.0,1.0,0.0,1.0,0.0
cb103,cb103_reward,reward,0,156,156,0,0.0,0.05,0.75,640.0,1.0,0.0,2.0,1.0,0.0,0.0,0.0
cb103,cb103_reward,reward,0,157,157,0,0.0,0.3,0.44,404.0,1.0,0.0,2.0,1.0,0.0,0.0,0.0
cb103,cb103_reward,reward,0,158,158,0,1.0,0.73,0.01,307.0,1.0,0.0,2.0,1.0,0.0,1.0,0.0
cb103,cb103_reward,reward,0,159,159,0,0.0,0.54,0.55,378.0,1.0,0.0,2.0,1.0,0.0,0.0,0.0
cb103,cb103_reward,reward,0,160,160,0,0.0,0.22,0.71,354.0,1.0,0.0,2.0,1.0,0.0,0.0,0.0
cb103,cb103_reward,reward,0,161,161,0,0.0,0.14,0.08,320.0,1.0,0.0,2.0,1.0,0.0,0.0,0.0
cb103,cb103_reward,reward,0,162,162,0,0.0,0.9,0.72,260.0,1.0,0.0,2.0,1.0,0.0,0.0,0.0
cb103,cb103_reward,reward,0,163,163,0,0.0,0.65,0.79,347.0,1.0,0.0,2.0,1.0,0.0,0.0,0.0
cb103,cb103_reward,reward,0,164,164,0,0.0,0.44,0.68,260.0,1.0,0.0,2.0,1.0,0.0,0.0,0.0
cb103,cb103_reward,reward,0,165,165,0,1.0,0.07,0.22,300.0,1.0,0.0,2.0,1.0,0.0,1.0,0.0
cb103,cb103_reward,reward,0,166,166,0,0.0,0.35,0.76,300.0,1.0,0.0,2.0,1.0,0.0,0.0,0.0
cb103,cb103_reward,reward,0,167,167,0,0.0,0.76,0.68,328.0,1.0,0.0,2.0,1.0,0.0,0.0,0.0
cb103,cb103_reward,reward,0,168,168,0,1.0,0.57,0.5,340.0,1.0,0.0,2.0,1.0,0.0,1.0,0.0
cb103,cb103_reward,reward,0,169,169,0,0.0,0.72,0.65,562.0,1.0,0.0,2.0,1.0,0.0,0.0,0.0
cb103,cb103_reward,reward,0,170,170,0,0.0,0.86,0.85,515.0,1.0,0.0,2.0,1.0,0.0,0.0,0.0
cb103,cb103_reward,reward,0,171,171,0,0.0,0.11,0.36,623.0,1.0,0.0,2.0,1.0,0.0,0.0,0.0
cb103,cb103_reward,reward,0,172,172,0,1.0,0.02,0.45,270.0,1.0,0.0,2.0,1.0,0.0,1.0,0.0
cb103,cb103_reward,reward,0,173,173,0,1.0,0.65,0.59,1214.0,1.0,0.0,2.0,1.0,0.0,1.0,0.0
cb103,cb103_reward,reward,0,174,174,0,1.0,0.48,0.91,526.0,1.0,0.0,2.0,1.0,0.0,1.0,0.0
cb103,cb103_reward,reward,0,175,175,0,1.0,0.54,0.8,322.0,1.0,0.0,2.0,1.0,0.0,1.0,0.0
cb103,cb103_reward,reward,0,176,176,1,0.0,0.74,0.27,300.0,1.0,0.0,2.0,1.0,0.0,0.0,0.0
cb103,cb103_reward,reward,0,177,177,0,0.0,0.1,0.99,260.0,1.0,0.0,2.0,1.0,0.0,0.0,0.0
cb103,cb103_reward,reward,0,178,178,0,0.0,0.61,0.18,1485.0,1.0,0.0,2.0,1.0,0.0,0.0,0.0
cb103,cb103_reward,reward,0,179,179,0,0.0,0.72,0.63,249.0,1.0,0.0,2.0,1.0,0.0,0.0,0.0
cb103,cb103_pain,pain,1,0,10000,1,0.0,-0.1,-0.23,310.0,0.0,1.0,0.0,0.0,1.0,1.0,1.0
cb103,cb103_pain,pain,1,1,10001,0,0.0,-0.97,-0.45,840.0,0.0,1.0,0.0,0.0,1.0,1.0,0.0
cb103,cb103_pain,pain,1,2,10002,0,0.0,-0.62,-0.54,613.0,0.0,1.0,0.0,0.0,1.0,1.0,0.0
cb103,cb103_pain,pain,1,3,10003,0,1.0,-0.16,-0.99,1140.0,0.0,1.0,0.0,0.0,1.0,0.0,0.0
cb103,cb103_pain,pain,1,4,10004,1,0.0,-0.4,-0.72,2994.0,0.0,1.0,0.0,0.0,1.0,1.0,0.0
cb103,cb103_pain,pain,1,5,10005,1,0.0,-0.88,-0.98,480.0,0.0,1.0,0.0,0.0,1.0,1.0,0.0
cb103,cb103_pain,pain,1,6,10006,0,0.0,-0.54,-0.06,360.0,0.0,1.0,0.0,0.0,1.0,1.0,0.0
cb103,cb103_pain,pain,1,7,10007,0,0.0,-0.55,-0.64,1010.0,0.0,1.0,0.0,0.0,1.0,1.0,0.0
cb103,cb103_pain,pain,1,8,10008,1,0.0,-0.45,-0.96,1737.0,0.0,1.0,0.0,0.0,1.0,1.0,0.0
cb103,cb103_pain,pain,1,9,10009,1,0.0,-0.19,-0.28,379.0,0.0,1.0,0.0,0.0,1.0,1.0,0.0
cb103,cb103_pain,pain,1,10,10010,1,0.0,-0.26,-0.95,598.0,0.0,1.0,0.0,0.0,1.0,1.0,0.0
cb103,cb103_pain,pain,1,11,10011,1,0.0,-0.29,-0.9,552.0,0.0,1.0,0.0,0.0,1.0,1.0,0.0
cb103,cb103_pain,pain,1,12,10012,0,0.0,-0.53,-0.2,984.0,0.0,1.0,0.0,0.0,1.0,1.0,0.0
cb103,cb103_pain,pain,1,13,10013,1,0.0,-0.56,-0.74,383.0,0.0,1.0,0.0,0.0,1.0,1.0,0.0
cb103,cb103_pain,pain,1,14,10014,1,0.0,-0.42,-0.18,1576.0,0.0,1.0,0.0,0.0,1.0,1.0,0.0
cb103,cb103_pain,pain,1,15,10015,0,0.0,-0.91,-0.11,440.0,0.0,1.0,0.0,0.0,1.0,1.0,0.0
cb103,cb103_pain,pain,1,16,10016,1,1.0,-0.31,-0.32,372.0,0.0,1.0,0.0,0.0,1.0,0.0,0.0
cb103,cb103_pain,pain,1,17,10017,0,1.0,-0.65,-0.36,480.0,0.0,1.0,0.0,0.0,1.0,0.0,0.0
cb103,cb103_pain,pain,1,18,10018,0,1.0,-0.3,-0.4,771.0,0.0,1.0,0.0,0.0,1.0,0.0,0.0
cb103,cb103_pain,pain,1,19,10019,0,0.0,-0.26,-0.29,956.0,0.0,1.0,0.0,0.0,1.0,1.0,0.0
cb103,cb103_pain,pain,1,20,10020,1,1.0,-0.36,-0.32,1152.0,0.0,1.0,0.0,0.0,1.0,0.0,0.0
cb103,cb103_pain,pain,1,21,10021,0,0.0,-0.81,-0.72,861.0,0.0,1.0,0.0,0.0,1.0,1.0,0.0
cb103,cb103_pain,pain,1,22,10022,1,1.0,-0.54,-0.95,321.0,0.0,1.0,0.0,0.0,1.0,0.0,0.0
cb103,cb103_pain,pain,1,23,10023,0,1.0,-0.59,-0.4,2352.0,0.0,1.0,0.0,0.0,1.0,0.0,0.0
cb103,cb103_pain,pain,1,24,10024,1,1.0,-0.24,-0.29,1180.0,0.0,1.0,0.0,0.0,1.0,0.0,0.0
cb103,cb103_pain,pain,1,25,10025,0,1.0,-0.51,-0.6,560.0,0.0,1.0,0.0,0.0,1.0,0.0,0.0
cb103,cb103_pain,pain,1,26,10026,1,1.0,-0.65,-0.83,849.0,0.0,1.0,0.0,0.0,1.0,0.0,0.0
cb103,cb103_pain,pain,1,27,10027,1,0.0,-0.98,-0.78,2070.0,0.0,1.0,0.0,0.0,1.0,1.0,0.0
cb103,cb103_pain,pain,1,28,10028,1,1.0,-0.51,-0.56,1120.0,0.0,1.0,0.0,0.0,1.0,0.0,0.0
cb103,cb103_pain,pain,1,29,10029,0,1.0,-0.2,-0.05,371.0,0.0,1.0,0.0,0.0,1.0,0.0,0.0
cb103,cb103_pain,pain,1,30,10030,1,1.0,-0.02,-0.67,1001.0,0.0,1.0,0.0,0.0,1.0,0.0,0.0
cb103,cb103_pain,pain,1,31,10031,1,1.0,-0.84,-0.85,926.0,0.0,1.0,0.0,0.0,1.0,0.0,0.0
cb103,cb103_pain,pain,1,32,10032,0,0.0,-0.49,-0.07,440.0,0.0,1.0,0.0,0.0,1.0,1.0,0.0
cb103,cb103_pain,pain,1,33,10033,0,1.0,-0.47,-0.37,916.0,0.0,1.0,0.0,0.0,1.0,0.0,0.0
cb103,cb103_pain,pain,1,34,10034,0,1.0,-0.91,-0.27,940.0,0.0,1.0,0.0,0.0,1.0,0.0,0.0
cb103,cb103_pain,pain,1,35,10035,1,1.0,-0.42,-0.44,691.0,0.0,1.0,0.0,0.0,1.0,0.0,0.0
cb103,cb103_pain,pain,1,36,10036,0,0.0,-0.55,-0.31,343.0,0.0,1.0,0.0,0.0,1.0,1.0,0.0
cb103,cb103_pain,pain,1,37,10037,0,1.0,-0.7,-0.97,1311.0,0.0,1.0,0.0,0.0,1.0,0.0,0.0
cb103,cb103_pain,pain,1,38,10038,1,1.0,-0.09,-0.14,756.0,0.0,1.0,0.0,0.0,1.0,0.0,0.0
cb103,cb103_pain,pain,1,39,10039,0,0.0,-0.51,-0.23,556.0,0.0,1.0,0.0,0.0,1.0,1.0,0.0
cb103,cb103_pain,pain,1,40,10040,0,0.0,-0.79,-0.89,1841.0,0.0,1.0,0.0,0.0,1.0,1.0,0.0
cb103,cb103_pain,pain,1,41,10041,1,0.0,-0.86,-0.83,1634.0,0.0,1.0,0.0,0.0,1.0,1.0,0.0
cb103,cb103_pain,pain,1,42,10042,0,0.0,-0.62,-0.4,1539.0,0.0,1.0,0.0,0.0,1.0,1.0,0.0
cb103,cb103_pain,pain,1,43,10043,1,0.0,-0.23,-0.36,610.0,0.0,1.0,0.0,0.0,1.0,1.0,0.0
cb103,cb103_pain,pain,1,44,10044,1,0.0,-0.61,-0.65,339.0,0.0,1.0,0.0,0.0,1.0,1.0,0.0
cb103,cb103_pain,pain,1,45,10045,1,0.0,-0.67,-0.74,764.0,0.0,1.0,0.0,0.0,1.0,1.0,0.0
cb103,cb103_pain,pain,1,46,10046,1,0.0,-0.41,-0.73,420.0,0.0,1.0,0.0,0.0,1.0,1.0,0.0
cb103,cb103_pain,pain,1,47,10047,0,1.0,-0.54,-0.96,699.0,0.0,1.0,0.0,0.0,1.0,0.0,0.0
cb103,cb103_pain,pain,1,48,10048,1,0.0,-0.88,-0.86,1050.0,0.0,1.0,0.0,0.0,1.0,1.0,0.0
cb103,cb103_pain,pain,1,49,10049,0,0.0,-0.66,-0.43,322.0,0.0,1.0,0.0,0.0,1.0,1.0,0.0
cb103,cb103_pain,pain,1,50,10050,1,0.0,-0.79,-0.72,1388.0,0.0,1.0,0.0,0.0,1.0,1.0,0.0
cb103,cb103_pain,pain,1,51,10051,1,1.0,-0.13,-0.71,341.0,0.0,1.0,0.0,0.0,1.0,0.0,0.0
cb103,cb103_pain,pain,1,52,10052,1,0.0,-0.53,-0.78,1340.0,0.0,1.0,0.0,0.0,1.0,1.0,0.0
cb103,cb103_pain,pain,1,53,10053,0,0.0,-0.9,-0.57,1470.0,0.0,1.0,0.0,0.0,1.0,1.0,0.0
cb103,cb103_pain,pain,1,54,10054,0,1.0,-0.12,-0.03,842.0,0.0,1.0,0.0,0.0,1.0,0.0,0.0
cb103,cb103_pain,pain,1,55,10055,0,0.0,-0.64,-0.02,303.0,0.0,1.0,0.0,0.0,1.0,1.0,0.0
cb103,cb103_pain,pain,1,56,10056,1,0.0,-0.09,-0.99,2215.0,0.0,1.0,0.0,0.0,1.0,1.0,0.0
cb103,cb103_pain,pain,1,57,10057,0,0.0,-0.42,-0.21,2425.0,0.0,1.0,0.0,0.0,1.0,1.0,0.0
cb103,cb103_pain,pain,1,58,10058,0,0.0,-0.72,-0.83,1582.0,0.0,1.0,0.0,0.0,1.0,1.0,0.0
cb103,cb103_pain,pain,1,59,10059,1,0.0,-0.11,-0.37,480.0,0.0,1.0,0.0,0.0,1.0,1.0,0.0
cb103,cb103_pain,pain,1,60,10060,0,1.0,-0.81,-0.67,1663.0,0.0,1.0,1.0,0.0,1.0,0.0,0.0
cb103,cb103_pain,pain,1,61,10061,0,0.0,-0.14,-0.12,1643.0,0.0,1.0,1.0,0.0,1.0,1.0,0.0
cb103,cb103_pain,pain,1,62,10062,1,1.0,-0.9,-0.78,3002.0,0.0,1.0,1.0,0.0,1.0,0.0,0.0
cb103,cb103_pain,pain,1,63,10063,0,1.0,-0.53,-0.46,3214.0,0.0,1.0,1.0,0.0,1.0,0.0,0.0
cb103,cb103_pain,pain,1,64,10064,0,1.0,-0.42,-0.3,1919.0,0.0,1.0,1.0,0.0,1.0,0.0,0.0
cb103,cb103_pain,pain,1,65,10065,0,1.0,-0.65,-0.36,466.0,0.0,1.0,1.0,0.0,1.0,0.0,0.0
cb103,cb103_pain,pain,1,66,10066,1,1.0,-0.49,-0.49,896.0,0.0,1.0,1.0,0.0,1.0,0.0,0.0
cb103,cb103_pain,pain,1,67,10067,1,1.0,-0.1,-0.44,487.0,0.0,1.0,1.0,0.0,1.0,0.0,0.0
cb103,cb103_pain,pain,1,68,10068,0,1.0,-0.64,-0.7,923.0,0.0,1.0,1.0,0.0,1.0,0.0,0.0
cb103,cb103_pain,pain,1,69,10069,0,1.0,-0.95,-0.68,690.0,0.0,1.0,1.0,0.0,1.0,0.0,0.0
cb103,cb103_pain,pain,1,70,10070,0,1.0,-0.48,-0.02,370.0,0.0,1.0,1.0,0.0,1.0,0.0,0.0
cb103,cb103_pain,pain,1,71,10071,0,1.0,-0.61,-0.09,707.0,0.0,1.0,1.0,0.0,1.0,0.0,0.0
cb103,cb103_pain,pain,1,72,10072,0,1.0,-0.6,-0.47,360.0,0.0,1.0,1.0,0.0,1.0,0.0,0.0
cb103,cb103_pain,pain,1,73,10073,1,1.0,-0.23,-0.78,287.0,0.0,1.0,1.0,0.0,1.0,0.0,0.0
cb103,cb103_pain,pain,1,74,10074,1,0.0,-0.67,-0.82,633.0,0.0,1.0,1.0,0.0,1.0,1.0,0.0
cb103,cb103_pain,pain,1,75,10075,1,1.0,-0.16,-0.64,494.0,0.0,1.0,1.0,0.0,1.0,0.0,0.0
cb103,cb103_pain,pain,1,76,10076,0,0.0,-0.78,-0.37,581.0,0.0,1.0,1.0,0.0,1.0,1.0,0.0
cb103,cb103_pain,pain,1,77,10077,1,1.0,-0.22,-0.89,418.0,0.0,1.0,1.0,0.0,1.0,0.0,0.0
cb103,cb103_pain,pain,1,78,10078,1,1.0,-0.18,-0.26,600.0,0.0,1.0,1.0,0.0,1.0,0.0,0.0
cb103,cb103_pain,pain,1,79,10079,0,1.0,-0.73,-0.08,301.0,0.0,1.0,1.0,0.0,1.0,0.0,0.0
cb103,cb103_pain,pain,1,80,10080,1,0.0,-0.66,-0.73,1815.0,0.0,1.0,1.0,0.0,1.0,1.0,0.0
cb103,cb103_pain,pain,1,81,10081,0,0.0,-0.17,-0.17,1362.0,0.0,1.0,1.0,0.0,1.0,1.0,0.0
cb103,cb103_pain,pain,1,82,10082,1,0.0,-0.63,-0.9,139.0,0.0,1.0,1.0,0.0,1.0,1.0,0.0
cb103,cb103_pain,pain,1,83,10083,1,0.0,-0.66,-0.77,377.0,0.0,1.0,1.0,0.0,1.0,1.0,0.0
cb103,cb103_pain,pain,1,84,10084,1,1.0,-0.27,-0.35,621.0,0.0,1.0,1.0,0.0,1.0,0.0,0.0
cb103,cb103_pain,pain,1,85,10085,0,0.0,-0.15,-0.04,548.0,0.0,1.0,1.0,0.0,1.0,1.0,0.0
cb103,cb103_pain,pain,1,86,10086,0,0.0,-0.9,-0.96,1722.0,0.0,1.0,1.0,0.0,1.0,1.0,0.0
cb103,cb103_pain,pain,1,87,10087,1,0.0,-0.11,-0.18,491.0,0.0,1.0,1.0,0.0,1.0,1.0,0.0
cb103,cb103_pain,pain,1,88,10088,1,0.0,-0.2,-0.53,2843.0,0.0,1.0,1.0,0.0,1.0,1.0,0.0
cb103,cb103_pain,pain,1,89,10089,1,0.0,-0.37,-0.85,340.0,0.0,1.0,1.0,0.0,1.0,1.0,0.0
cb103,cb103_pain,pain,1,90,10090,0,1.0,-0.46,-0.38,1460.0,1.0,0.0,1.0,0.0,1.0,0.0,0.0
cb103,cb103_pain,pain,1,91,10091,0,1.0,-0.24,-0.18,3955.0,1.0,0.0,1.0,0.0,1.0,0.0,0.0
cb103,cb103_pain,pain,1,92,10092,0,1.0,-0.78,-0.82,340.0,1.0,0.0,1.0,0.0,1.0,0.0,0.0
cb103,cb103_pain,pain,1,93,10093,0,1.0,-0.54,-0.59,253.0,1.0,0.0,1.0,0.0,1.0,0.0,0.0
cb103,cb103_pain,pain,1,94,10094,0,1.0,-0.33,-0.36,401.0,1.0,0.0,1.0,0.0,1.0,0.0,0.0
cb103,cb103_pain,pain,1,95,10095,0,1.0,-0.56,-0.49,841.0,1.0,0.0,1.0,0.0,1.0,0.0,0.0
cb103,cb103_pain,pain,1,96,10096,0,1.0,-0.83,-0.26,361.0,1.0,0.0,1.0,0.0,1.0,0.0,0.0
cb103,cb103_pain,pain,1,97,10097,0,1.0,-0.81,-0.38,300.0,1.0,0.0,1.0,0.0,1.0,0.0,0.0
cb103,cb103_pain,pain,1,98,10098,0,1.0,-0.23,-0.12,599.0,1.0,0.0,1.0,0.0,1.0,0.0,0.0
cb103,cb103_pain,pain,1,99,10099,1,1.0,-0.07,-0.87,393.0,1.0,0.0,1.0,0.0,1.0,0.0,0.0
cb103,cb103_pain,pain,1,100,10100,0,1.0,-0.5,-0.43,505.0,1.0,0.0,1.0,0.0,1.0,0.0,0.0
cb103,cb103_pain,pain,1,101,10101,0,1.0,-0.47,-0.5,308.0,1.0,0.0,1.0,0.0,1.0,0.0,0.0
cb103,cb103_pain,pain,1,102,10102,1,0.0,-0.35,-0.41,2264.0,1.0,0.0,1.0,0.0,1.0,1.0,0.0
cb103,cb103_pain,pain,1,103,10103,0,1.0,-0.87,-0.09,318.0,1.0,0.0,1.0,0.0,1.0,0.0,0.0
cb103,cb103_pain,pain,1,104,10104,0,1.0,-0.58,-0.2,3374.0,1.0,0.0,1.0,0.0,1.0,0.0,0.0
cb103,cb103_pain,pain,1,105,10105,0,1.0,-0.31,-0.88,2450.0,1.0,0.0,1.0,0.0,1.0,0.0,0.0
