participant,subject_id,trial_num,drift_1,drift_2,drift_3,drift_4,stage_1_response,stage_1_selected_stimulus,stage_1_rt,transition,stage_2_response,stage_2_selected_stimulus,stage_2_state,stage_2_rt,reward,redundant
0,37UEWGM5HT8KY9M9PLZR6M3SLUZ1R1,1,0.742621470936,0.272532468277,0.71669309271,0.479056705494,right,2,1054,True,right,2,3,580,1,1
0,37UEWGM5HT8KY9M9PLZR6M3SLUZ1R1,2,0.714054437546,0.28956974681,0.711770360008,0.456458310278,right,2,713,True,right,2,3,403,0,1
0,37UEWGM5HT8KY9M9PLZR6M3SLUZ1R1,3,0.708947909512,0.346194423994,0.714402963935,0.46593679168,left,1,828,False,right,2,3,693,0,1
0,37UEWGM5HT8KY9M9PLZR6M3SLUZ1R1,4,0.732490347346,0.339447868367,0.704013189795,0.385709276536,left,1,509,False,left,1,3,340,1,1
0,37UEWGM5HT8KY9M9PLZR6M3SLUZ1R1,5,0.717249489061,0.407606752597,0.721518196281,0.422206287292,left,1,718,True,right,2,2,891,1,1
0,37UEWGM5HT8KY9M9PLZR6M3SLUZ1R1,6,0.6630928988,0.45511262148,0.721181153667,0.404565489562,right,2,716,True,left,1,3,716,1,1
0,37UEWGM5HT8KY9M9PLZR6M3SLUZ1R1,7,0.672738831011,0.474384545792,0.743141113631,0.381869747044,right,2,648,True,left,1,3,436,1,1
0,37UEWGM5HT8KY9M9PLZR6M3SLUZ1R1,8,0.668045339679,0.480846588706,0.731564879728,0.405588632962,right,2,504,True,left,1,3,338,0,1
0,37UEWGM5HT8KY9M9PLZR6M3SLUZ1R1,9,0.669015262022,0.513473956177,0.728107518412,0.40687276212,left,1,535,True,right,2,2,349,1,1
0,37UEWGM5HT8KY9M9PLZR6M3SLUZ1R1,10,0.64671120204,0.526146178979,0.730336497662,0.408509497299,right,2,760,True,left,1,3,740,1,1
0,37UEWGM5HT8KY9M9PLZR6M3SLUZ1R1,11,0.607944402512,0.543315429143,0.724719472529,0.381349699905,right,2,671,False,left,1,2,597,1,1
0,37UEWGM5HT8KY9M9PLZR6M3SLUZ1R1,12,0.623056850805,0.526648888826,0.697371744877,0.395908106836,left,1,401,False,right,2,3,772,1,1
0,37UEWGM5HT8KY9M9PLZR6M3SLUZ1R1,13,0.607721669601,0.554902084053,0.689983332344,0.380218517946,left,1,535,True,left,1,2,1139,0,1
0,37UEWGM5HT8KY9M9PLZR6M3SLUZ1R1,14,0.642416333717,0.576955978171,0.708708278957,0.341168637042,left,1,532,False,right,2,3,1156,0,1
0,37UEWGM5HT8KY9M9PLZR6M3SLUZ1R1,15,0.614010351756,0.604034382831,0.732507162725,0.350118401239,left,1,359,True,left,1,2,347,1,1
0,37UEWGM5HT8KY9M9PLZR6M3SLUZ1R1,16,0.680413307829,0.594441283734,0.716261232916,0.355798838571,right,2,358,True,right,2,3,835,0,1
0,37UEWGM5HT8KY9M9PLZR6M3SLUZ1R1,17,0.67102435131,0.588086274504,0.730069464085,0.330877938548,right,2,246,True,left,1,3,227,1,1
0,37UEWGM5HT8KY9M9PLZR6M3SLUZ1R1,18,0.718432568922,0.568204732239,0.686176168762,0.309765161617,right,2,442,True,left,1,3,269,1,1
0,37UEWGM5HT8KY9M9PLZR6M3SLUZ1R1,19,0.713141823764,0.57865702431,0.696062430132,0.367234912443,right,2,375,True,left,1,3,260,1,1
0,37UEWGM5HT8KY9M9PLZR6M3SLUZ1R1,20,0.707002308783,0.572723191735,0.701021460261,0.344983910079,right,2,256,True,left,1,3,420,1,1
0,37UEWGM5HT8KY9M9PLZR6M3SLUZ1R1,21,0.697338532194,0.583247904064,0.713862580976,0.369623913462,right,2,368,False,left,1,2,292,1,1
0,37UEWGM5HT8KY9M9PLZR6M3SLUZ1R1,22,0.683738606376,0.577831132902,0.720175638244,0.347221826515,right,2,416,False,left,1,2,204,1,1
0,37UEWGM5HT8KY9M9PLZR6M3SLUZ1R1,23,0.723666933292,0.594247039033,0.678758987791,0.350429018148,right,2,255,True,left,1,3,204,1,1
0,37UEWGM5HT8KY9M9PLZR6M3SLUZ1R1,24,0.722552862976,0.64363551746,0.657672810429,0.358987448701,right,2,240,True,left,1,3,196,1,1
0,37UEWGM5HT8KY9M9PLZR6M3SLUZ1R1,25,0.729163712473,0.664465485514,0.659189229643,0.373726090068,right,2,264,True,left,1,3,227,1,1
0,37UEWGM5HT8KY9M9PLZR6M3SLUZ1R1,26,0.736463051067,0.667677417009,0.633789239965,0.388062858383,right,2,568,False,left,1,2,252,1,1
0,37UEWGM5HT8KY9M9PLZR6M3SLUZ1R1,27,0.743521712443,0.680410974005,0.603566014102,0.365819318125,right,2,263,False,left,1,2,266,1,1
0,37UEWGM5HT8KY9M9PLZR6M3SLUZ1R1,28,0.732307752744,0.688129657145,0.639730342634,0.324473032481,right,2,239,False,left,1,2,228,1,1
0,37UEWGM5HT8KY9M9PLZR6M3SLUZ1R1,29,0.736811669823,0.670863418611,0.612317833639,0.359797741125,right,2,175,True,left,1,3,260,1,1
0,37UEWGM5HT8KY9M9PLZR6M3SLUZ1R1,30,0.743345059239,0.664878919109,0.616259626176,0.316896486661,right,2,328,True,left,1,3,445,1,1
0,37UEWGM5HT8KY9M9PLZR6M3SLUZ1R1,31,0.746265616093,0.667204230628,0.57959946249,0.31335500672,right,2,278,True,left,1,3,300,0,1
0,37UEWGM5HT8KY9M9PLZR6M3SLUZ1R1,32,0.723199980689,0.64267698388,0.581017754762,0.308527186817,right,2,710,True,left,1,3,268,1,1
0,37UEWGM5HT8KY9M9PLZR6M3SLUZ1R1,33,0.694695825122,0.703101902478,0.568902198934,0.290605018323,right,2,281,False,left,1,2,227,0,1
0,37UEWGM5HT8KY9M9PLZR6M3SLUZ1R1,34,0.67334094861,0.696419411433,0.578031478635,0.309599444775,right,2,445,True,left,1,3,268,1,1
0,37UEWGM5HT8KY9M9PLZR6M3SLUZ1R1,35,0.652335091449,0.70438345769,0.59605536339,0.279470956194,right,2,369,True,right,2,3,597,1,1
0,37UEWGM5HT8KY9M9PLZR6M3SLUZ1R1,36,0.657451953133,0.683837920999,0.568078580687,0.27404823551,right,2,302,True,right,2,3,436,0,1
0,37UEWGM5HT8KY9M9PLZR6M3SLUZ1R1,37,0.675374672435,0.712212599172,0.561377542482,0.284355796866,right,2,295,True,left,1,3,396,1,1
0,37UEWGM5HT8KY9M9PLZR6M3SLUZ1R1,38,0.671284094134,0.716259324014,0.566258884749,0.269938039503,right,2,431,False,right,2,2,716,1,1
0,37UEWGM5HT8KY9M9PLZR6M3SLUZ1R1,39,0.654751036327,0.744322707512,0.618638427368,0.294912002446,right,2,295,False,right,2,2,370,1,1
0,37UEWGM5HT8KY9M9PLZR6M3SLUZ1R1,40,0.660675754074,0.685611640794,0.605892201903,0.270200805787,right,2,384,False,right,2,2,373,1,1
0,37UEWGM5HT8KY9M9PLZR6M3SLUZ1R1,41,0.697626230879,0.729448779435,0.608670557774,0.256991528728,right,2,280,False,right,2,2,459,1,1
0,37UEWGM5HT8KY9M9PLZR6M3SLUZ1R1,42,0.726645073604,0.717332378805,0.603307527487,0.277574736158,right,2,287,False,right,2,2,372,1,1
0,37UEWGM5HT8KY9M9PLZR6M3SLUZ1R1,43,0.710785605187,0.73572032618,0.603035835786,0.300463039776,right,2,270,True,right,2,3,412,0,1
0,37UEWGM5HT8KY9M9PLZR6M3SLUZ1R1,44,0.690886938659,0.740720643321,0.608800181298,0.305367115844,right,2,285,True,left,1,3,308,1,1
0,37UEWGM5HT8KY9M9PLZR6M3SLUZ1R1,45,0.682073026999,0.726886066092,0.597549552128,0.298118154697,right,2,311,True,left,1,3,267,1,1
0,37UEWGM5HT8KY9M9PLZR6M3SLUZ1R1,46,0.692167085493,0.701363725585,0.639345636163,0.368054277054,right,2,368,False,left,1,2,420,1,1
0,37UEWGM5HT8KY9M9PLZR6M3SLUZ1R1,47,0.726979525113,0.685298681928,0.665140217735,0.392550601145,right,2,256,False,left,1,2,260,1,1
0,37UEWGM5HT8KY9M9PLZR6M3SLUZ1R1,48,0.734914379351,0.68153045423,0.667316355854,0.380373869228,right,2,288,True,right,2,3,380,0,1
0,37UEWGM5HT8KY9M9PLZR6M3SLUZ1R1,49,0.714865063908,0.653994687644,0.672014216512,0.367354016553,right,2,333,True,left,1,3,380,1,1
0,37UEWGM5HT8KY9M9PLZR6M3SLUZ1R1,50,0.713201331899,0.676140093398,0.674811303487,0.344411485936,right,2,295,True,left,1,3,250,0,1
0,37UEWGM5HT8KY9M9PLZR6M3SLUZ1R1,51,0.73310943824,0.669322372281,0.662652287375,0.29720573873,right,2,278,False,left,1,2,628,1,1
0,37UEWGM5HT8KY9M9PLZR6M3SLUZ1R1,52,0.700235093867,0.701682886358,0.677069605794,0.332317401302,right,2,262,True,left,1,3,276,1,1
0,37UEWGM5HT8KY9M9PLZR6M3SLUZ1R1,53,0.681608516568,0.679629779822,0.681276831864,0.288342858569,right,2,232,False,left,1,2,195,1,1
0,37UEWGM5HT8KY9M9PLZR6M3SLUZ1R1,54,0.611253601709,0.660626826063,0.70952385264,0.330572173264,right,2,624,True,left,1,3,308,1,1
0,37UEWGM5HT8KY9M9PLZR6M3SLUZ1R1,55,0.66703777187,0.672946186741,0.737926106414,0.317011361338,right,2,327,True,left,1,3,364,0,1
0,37UEWGM5HT8KY9M9PLZR6M3SLUZ1R1,56,0.663328365422,0.668736431958,0.720239436976,0.329794236079,right,2,477,True,left,1,3,405,1,1
0,37UEWGM5HT8KY9M9PLZR6M3SLUZ1R1,57,0.612291779763,0.64812962841,0.714275483314,0.285713898761,right,2,263,False,left,1,2,300,1,1
0,37UEWGM5HT8KY9M9PLZR6M3SLUZ1R1,58,0.601996752534,0.690302803125,0.676016484568,0.271887355155,right,2,273,True,left,1,3,267,1,1
0,37UEWGM5HT8KY9M9PLZR6M3SLUZ1R1,59,0.613291721538,0.709488073072,0.661531678887,0.299130690859,right,2,470,True,left,1,3,236,0,1
0,37UEWGM5HT8KY9M9PLZR6M3SLUZ1R1,60,0.576180172387,0.710892275986,0.652653677393,0.314466701606,right,2,263,True,left,1,3,234,1,1
0,37UEWGM5HT8KY9M9PLZR6M3SLUZ1R1,61,0.55143212238,0.6853037472,0.679903912304,0.298421798989,right,2,346,True,left,1,3,197,1,1
0,37UEWGM5HT8KY9M9PLZR6M3SLUZ1R1,62,0.552884156424,0.712766267125,0.703638809173,0.32433324524,right,2,264,True,left,1,3,292,0,1
0,37UEWGM5HT8KY9M9PLZR6M3SLUZ1R1,63,0.523932583535,0.711521035133,0.679767370885,0.337888246509,right,2,295,True,left,1,3,412,1,1
0,37UEWGM5HT8KY9M9PLZR6M3SLUZ1R1,64,0.463568418654,0.711676676089,0.654057416911,0.301245991201,right,2,329,True,left,1,3,261,0,1
0,37UEWGM5HT8KY9M9PLZR6M3SLUZ1R1,65,0.512684775876,0.72135123212,0.608900413955,0.307315993953,right,2,254,True,right,2,3,211,0,1
0,37UEWGM5HT8KY9M9PLZR6M3SLUZ1R1,66,0.4789698412,0.699848934728,0.614568831315,0.250436393356,right,2,333,False,left,1,2,252,0,1
0,37UEWGM5HT8KY9M9PLZR6M3SLUZ1R1,67,0.4762029504,0.694385754211,0.632767436931,0.284111851193,right,2,288,True,left,1,3,356,1,1
0,37UEWGM5HT8KY9M9PLZR6M3SLUZ1R1,68,0.507081830395,0.677726367322,0.626004736862,0.317292542624,right,2,288,True,left,1,3,547,1,1
0,37UEWGM5HT8KY9M9PLZR6M3SLUZ1R1,69,0.530878795539,0.655313569542,0.603059838512,0.35399122944,right,2,371,True,left,1,3,380,0,1
0,37UEWGM5HT8KY9M9PLZR6M3SLUZ1R1,70,0.515056866669,0.621614881021,0.58701353054,0.316633763971,right,2,302,False,left,1,2,508,1,1
0,37UEWGM5HT8KY9M9PLZR6M3SLUZ1R1,71,0.564088952011,0.605891511566,0.597831961545,0.302344162838,right,2,264,True,right,2,3,701,1,1
0,37UEWGM5HT8KY9M9PLZR6M3SLUZ1R1,72,0.54449084523,0.577146163723,0.59199090907,0.331577263471,right,2,262,True,right,2,3,684,1,1
0,37UEWGM5HT8KY9M9PLZR6M3SLUZ1R1,73,0.566979079908,0.605338027274,0.564635273227,0.330100786862,right,2,304,True,right,2,3,396,0,1
0,37UEWGM5HT8KY9M9PLZR6M3SLUZ1R1,74,0.551299433382,0.607923806021,0.548505305566,0.309216084463,right,2,272,True,right,2,3,283,1,1
0,37UEWGM5HT8KY9M9PLZR6M3SLUZ1R1,75,0.542745978,0.589975468932,0.538285961481,0.334258316899,right,2,255,True,right,2,3,332,0,1
0,37UEWGM5HT8KY9M9PLZR6M3SLUZ1R1,76,0.561497649091,0.630898581991,0.556776422344,0.331123452327,right,2,246,True,left,1,3,588,1,1
0,37UEWGM5HT8KY9M9PLZR6M3SLUZ1R1,77,0.589017199812,0.627952603444,0.550030110147,0.346628080055,right,2,272,True,left,1,3,227,0,1
0,37UEWGM5HT8KY9M9PLZR6M3SLUZ1R1,78,0.584186560288,0.579581394278,0.557708870011,0.372955434066,right,2,222,True,right,2,3,765,0,1
0,37UEWGM5HT8KY9M9PLZR6M3SLUZ1R1,79,0.663978965977,0.603348757443,0.596450133085,0.335534554466,right,2,246,False,left,1,2,805,1,1
0,37UEWGM5HT8KY9M9PLZR6M3SLUZ1R1,80,0.685488538842,0.661324828013,0.628562826405,0.317508487146,right,2,344,False,left,1,2,378,0,1
0,37UEWGM5HT8KY9M9PLZR6M3SLUZ1R1,81,0.689540608913,0.642447759192,0.639191253292,0.280146174731,right,2,189,True,left,1,3,1053,1,1
0,37UEWGM5HT8KY9M9PLZR6M3SLUZ1R1,82,0.710426203535,0.655563840418,0.647453282745,0.260992840152,left,1,334,True,left,1,2,484,1,1
0,37UEWGM5HT8KY9M9PLZR6M3SLUZ1R1,83,0.69084005601,0.626748569246,0.618006356653,0.265458837477,left,1,351,True,left,1,2,242,1,1
0,37UEWGM5HT8KY9M9PLZR6M3SLUZ1R1,84,0.66045000665,0.589118902235,0.582373787352,0.266296660997,left,1,358,True,left,1,2,275,1,1
0,37UEWGM5HT8KY9M9PLZR6M3SLUZ1R1,85,0.692987016621,0.603946174416,0.594937517543,0.304179889849,left,1,359,True,left,1,2,333,0,1
0,37UEWGM5HT8KY9M9PLZR6M3SLUZ1R1,86,0.742301951068,0.638028136197,0.598561432857,0.339665013074,left,1,271,False,left,1,3,267,0,1
0,37UEWGM5HT8KY9M9PLZR6M3SLUZ1R1,87,0.686698795879,0.686641888378,0.563299184018,0.332946702685,left,1,639,True,right,2,2,380,1,1
0,37UEWGM5HT8KY9M9PLZR6M3SLUZ1R1,88,0.690926289258,0.664793565833,0.567644663702,0.350846869979,left,1,263,True,right,2,2,277,1,1
0,37UEWGM5HT8KY9M9PLZR6M3SLUZ1R1,89,0.639906407079,0.672512670635,0.552287929984,0.382400271729,left,1,248,True,right,2,2,195,1,1
0,37UEWGM5HT8KY9M9PLZR6M3SLUZ1R1,90,0.599526089753,0.702037914288,0.551499978304,0.385810615866,left,1,264,False,right,2,3,204,0,1
0,37UEWGM5HT8KY9M9PLZR6M3SLUZ1R1,91,0.571792989341,0.691019576673,0.521950006971,0.435034807193,left,1,245,True,right,2,2,683,1,1
0,37UEWGM5HT8KY9M9PLZR6M3SLUZ1R1,92,0.584683137779,0.706512645771,0.51122706761,0.445767985761,left,1,294,True,right,2,2,315,1,1
0,37UEWGM5HT8KY9M9PLZR6M3SLUZ1R1,93,0.554861172246,0.711737596545,0.492981519726,0.440683358106,left,1,71,False,right,2,3,142,1,1
0,37UEWGM5HT8KY9M9PLZR6M3SLUZ1R1,94,0.56691541983,0.724832553503,0.484850092769,0.421860460474,left,1,285,True,right,2,2,227,1,1
0,37UEWGM5HT8KY9M9PLZR6M3SLUZ1R1,95,0.566678637331,0.720026008902,0.464133901312,0.41295891552,left,1,377,False,right,2,3,219,1,1
0,37UEWGM5HT8KY9M9PLZR6M3SLUZ1R1,96,0.526879516376,0.731858231709,0.476966682047,0.397678154404,left,1,536,True,right,2,2,244,1,1
0,37UEWGM5HT8KY9M9PLZR6M3SLUZ1R1,97,0.495215171763,0.724235293032,0.515579848533,0.441247188452,left,1,239,False,right,2,3,229,1,1
0,37UEWGM5HT8KY9M9PLZR6M3SLUZ1R1,98,0.451702131943,0.722808342847,0.534160534675,0.393018126972,left,1,321,False,right,2,3,276,1,1
0,37UEWGM5HT8KY9M9PLZR6M3SLUZ1R1,99,0.472061866997,0.665813203964,0.484894662984,0.383038572744,left,1,295,True,right,2,2,233,0,1
0,37UEWGM5HT8KY9M9PLZR6M3SLUZ1R1,100,0.44047725176,0.677258434574,0.482475294507,0.368141735434,left,1,345,False,left,1,3,236,0,1
0,37UEWGM5HT8KY9M9PLZR6M3SLUZ1R1,101,0.465939039681,0.675360161858,0.477210773749,0.392195785011,left,1,254,True,right,2,2,196,0,1
0,37UEWGM5HT8KY9M9PLZR6M3SLUZ1R1,102,0.484780332161,0.725432311224,0.488300642483,0.393341274419,left,1,175,False,right,2,3,716,0,1
0,37UEWGM5HT8KY9M9PLZR6M3SLUZ1R1,103,0.483232027022,0.713118198543,0.510764901989,0.382117662374,left,1,335,True,left,1,2,596,1,1
0,37UEWGM5HT8KY9M9PLZR6M3SLUZ1R1,104,0.487664781079,0.746520841043,0.488735788724,0.354687213322,left,1,255,True,left,1,2,236,1,1
0,37UEWGM5HT8KY9M9PLZR6M3SLUZ1R1,105,0.466196046634,0.738623462929,0.484563566009,0.359013680846,left,1,246,True,left,1,2,132,0,1
0,37UEWGM5HT8KY9M9PLZR6M3SLUZ1R1,106,0.442305640081,0.735684662005,0.457603870736,0.422503378505,left,1,295,True,right,2,2,747,0,1
0,37UEWGM5HT8KY9M9PLZR6M3SLUZ1R1,107,0.431291039251,0.737970405597,0.474213679147,0.440406871436,left,1,651,True,left,1,2,638,0,1
0,37UEWGM5HT8KY9M9PLZR6M3SLUZ1R1,108,0.411758552591,0.726683838125,0.424416267289,0.437138352581,left,1,374,False,right,2,3,226,1,1
0,37UEWGM5HT8KY9M9PLZR6M3SLUZ1R1,109,0.426170150128,0.716216452261,0.437737338122,0.394549101032,left,1,320,False,right,2,3,261,1,1
0,37UEWGM5HT8KY9M9PLZR6M3SLUZ1R1,110,0.459510607636,0.734927828656,0.409597477729,0.408865363166,left,1,183,True,right,2,2,252,1,1
0,37UEWGM5HT8KY9M9PLZR6M3SLUZ1R1,111,0.427067584609,0.687396330944,0.422055811318,0.420048706351,left,1,290,True,right,2,2,300,0,1
0,37UEWGM5HT8KY9M9PLZR6M3SLUZ1R1,112,0.396708940978,0.671869621097,0.433717704758,0.409536015214,left,1,263,True,right,2,2,732,1,1
0,37UEWGM5HT8KY9M9PLZR6M3SLUZ1R1,113,0.392163878606,0.674074699172,0.421056076456,0.417970716472,left,1,287,True,right,2,2,380,1,1
0,37UEWGM5HT8KY9M9PLZR6M3SLUZ1R1,114,0.405190010723,0.621025368561,0.435236166576,0.408741840632,left,1,279,False,right,2,3,291,1,1
0,37UEWGM5HT8KY9M9PLZR6M3SLUZ1R1,115,0.438900538552,0.653627324378,0.436495632727,0.413355976541,left,1,286,True,right,2,2,299,1,1
0,37UEWGM5HT8KY9M9PLZR6M3SLUZ1R1,116,0.466364070331,0.639706334825,0.420982311789,0.37690224461,left,1,256,True,right,2,2,253,0,1
0,37UEWGM5HT8KY9M9PLZR6M3SLUZ1R1,117,0.44593666449,0.664991972369,0.444372392431,0.369366843978,left,1,87,True,right,2,2,188,0,1
0,37UEWGM5HT8KY9M9PLZR6M3SLUZ1R1,118,0.412733194721,0.661210229012,0.483239814095,0.329894679932,left,1,288,True,right,2,2,986,0,1
0,37UEWGM5HT8KY9M9PLZR6M3SLUZ1R1,119,0.431345823754,0.653591919012,0.468808732687,0.333441714697,left,1,311,True,left,1,2,283,0,1
0,37UEWGM5HT8KY9M9PLZR6M3SLUZ1R1,120,0.447208271084,0.62713216337,0.475007496911,0.32802780441,right,2,364,False,right,2,2,363,0,1
0,37UEWGM5HT8KY9M9PLZR6M3SLUZ1R1,121,0.504181576761,0.598908450997,0.515211526458,0.320161421711,right,2,254,True,left,1,3,389,1,1
0,37UEWGM5HT8KY9M9PLZR6M3SLUZ1R1,122,0.538685689494,0.59872734267,0.581245967994,0.326761785411,right,2,287,True,left,1,3,252,1,1
0,37UEWGM5HT8KY9M9PLZR6M3SLUZ1R1,123,0.545842916492,0.565631827948,0.572375519669,0.349220564181,right,2,399,False,left,1,2,411,0,1
0,37UEWGM5HT8KY9M9PLZR6M3SLUZ1R1,124,0.534424600245,0.575336677774,0.589370511578,0.317026148602,right,2,294,False,left,1,2,252,0,1
0,37UEWGM5HT8KY9M9PLZR6M3SLUZ1R1,125,0.526371932117,0.577041141149,0.5830435132,0.304210055249,right,2,286,False,right,2,2,179,1,1
0,37UEWGM5HT8KY9M9PLZR6M3SLUZ1R1,126,0.49512953076,0.52563292561,0.545587063314,0.312630586025,right,2,305,True,right,2,3,420,1,1
0,37UEWGM5HT8KY9M9PLZR6M3SLUZ1R1,127,0.530068526255,0.510034012006,0.577867996947,0.29247870187,right,2,327,False,right,2,2,276,1,1
0,37UEWGM5HT8KY9M9PLZR6M3SLUZ1R1,128,0.521176469857,0.476556608777,0.587986796524,0.287512284603,right,2,303,True,right,2,3,860,0,1
0,37UEWGM5HT8KY9M9PLZR6M3SLUZ1R1,129,0.517407173469,0.451511907077,0.63486949102,0.272527687021,right,2,294,True,right,2,3,652,0,1
0,37UEWGM5HT8KY9M9PLZR6M3SLUZ1R1,130,0.519013950795,0.441926101218,0.638098815725,0.259425093522,right,2,277,True,left,1,3,348,0,1
0,37UEWGM5HT8KY9M9PLZR6M3SLUZ1R1,131,0.498890596703,0.467441570089,0.653874797874,0.255058599684,right,2,294,True,left,1,3,595,0,1
0,37UEWGM5HT8KY9M9PLZR6M3SLUZ1R1,132,0.506975099993,0.5138196349,0.723727134143,0.289296114384,left,1,246,True,right,2,2,675,0,1
0,37UEWGM5HT8KY9M9PLZR6M3SLUZ1R1,133,0.478373189761,0.515418585011,0.739344280162,0.319696009516,left,1,367,True,left,1,2,267,0,1
0,37UEWGM5HT8KY9M9PLZR6M3SLUZ1R1,134,0.464117630012,0.505406846973,0.710796212728,0.358548929167,left,1,278,True,right,2,2,444,0,1
0,37UEWGM5HT8KY9M9PLZR6M3SLUZ1R1,135,0.438161564291,0.512963083972,0.663310280412,0.414164557033,right,2,278,True,left,1,3,114,0,1
0,37UEWGM5HT8KY9M9PLZR6M3SLUZ1R1,136,0.437804854271,0.521267445542,0.707140312177,0.381977117266,left,1,406,False,left,1,3,132,0,1
0,37UEWGM5HT8KY9M9PLZR6M3SLUZ1R1,137,0.39550576703,0.530734677637,0.722301577653,0.386129965171,right,2,256,True,right,2,3,268,0,1
0,37UEWGM5HT8KY9M9PLZR6M3SLUZ1R1,138,0.369825946503,0.529297444232,0.705073970166,0.412192170598,right,2,286,False,left,1,2,805,0,1
0,37UEWGM5HT8KY9M9PLZR6M3SLUZ1R1,139,0.340955933434,0.535677091359,0.676049799996,0.397064309229,right,2,286,False,right,2,2,236,1,1
0,37UEWGM5HT8KY9M9PLZR6M3SLUZ1R1,140,0.327841930378,0.494485627413,0.67379787808,0.385319942822,right,2,62,False,right,2,2,284,1,1
0,37UEWGM5HT8KY9M9PLZR6M3SLUZ1R1,141,0.346949999261,0.50276959175,0.631642167891,0.352071439617,right,2,263,False,right,2,2,100,0,1
0,37UEWGM5HT8KY9M9PLZR6M3SLUZ1R1,142,0.327683547083,0.479498572317,0.588172558354,0.338016967094,right,2,334,True,left,1,3,1460,1,1
0,37UEWGM5HT8KY9M9PLZR6M3SLUZ1R1,143,0.345778721519,0.463422938754,0.621093596977,0.356575357295,right,2,265,True,left,1,3,363,1,1
0,37UEWGM5HT8KY9M9PLZR6M3SLUZ1R1,144,0.364945822642,0.467786950715,0.638775660409,0.387799137668,right,2,64,False,right,2,2,876,0,1
0,37UEWGM5HT8KY9M9PLZR6M3SLUZ1R1,145,0.366856198242,0.479262099846,0.638164830174,0.392213022096,right,2,271,False,left,1,2,731,1,1
0,37UEWGM5HT8KY9M9PLZR6M3SLUZ1R1,146,0.353443186556,0.456792617563,0.592292922404,0.419555911538,right,2,271,False,left,1,2,349,1,1
0,37UEWGM5HT8KY9M9PLZR6M3SLUZ1R1,147,0.301722088337,0.45830036555,0.622835797891,0.375761582739,right,2,313,True,left,1,3,283,0,1
0,37UEWGM5HT8KY9M9PLZR6M3SLUZ1R1,148,0.264341556455,0.449775355421,0.662131127511,0.349120033327,right,2,29,True,right,2,3,438,0,1
0,37UEWGM5HT8KY9M9PLZR6M3SLUZ1R1,149,0.264668248755,0.494929555671,0.639769434173,0.358401192005,left,1,294,True,right,2,2,307,0,1
0,37UEWGM5HT8KY9M9PLZR6M3SLUZ1R1,150,0.30110562558,0.464280328832,0.609903853688,0.377339726515,left,1,288,True,left,1,2,267,0,1
0,37UEWGM5HT8KY9M9PLZR6M3SLUZ1R1,151,0.280623215878,0.481986230299,0.626281431716,0.383460733712,right,2,230,False,left,1,2,372,0,1
0,37UEWGM5HT8KY9M9PLZR6M3SLUZ1R1,152,0.304683770407,0.502435718544,0.643640302365,0.391815879345,right,2,16,True,right,2,3,277,0,1
0,37UEWGM5HT8KY9M9PLZR6M3SLUZ1R1,153,0.283322642867,0.498139442605,0.642128054045,0.352140031719,right,2,574,True,left,1,3,500,1,1
0,37UEWGM5HT8KY9M9PLZR6M3SLUZ1R1,154,0.306269030949,0.451614361835,0.654672308956,0.348380129875,right,2,306,True,left,1,3,308,0,1
0,37UEWGM5HT8KY9M9PLZR6M3SLUZ1R1,155,0.308778603441,0.402575938955,0.656372423923,0.342612192118,right,2,333,True,left,1,3,251,0,1
0,37UEWGM5HT8KY9M9PLZR6M3SLUZ1R1,156,0.33451263543,0.446579202849,0.658542188835,0.357265872674,right,2,16,False,left,1,2,683,0,1
0,37UEWGM5HT8KY9M9PLZR6M3SLUZ1R1,157,0.297271386897,0.430236977273,0.63540553159,0.375693693187,right,2,184,True,right,2,3,243,0,1
0,37UEWGM5HT8KY9M9PLZR6M3SLUZ1R1,158,0.28858538497,0.452657205597,0.623941677319,0.338900571893,right,2,310,True,left,1,3,413,1,1
0,37UEWGM5HT8KY9M9PLZR6M3SLUZ1R1,159,0.25563944793,0.465453983137,0.603769339648,0.360800282578,right,2,304,False,right,2,2,940,0,1
0,37UEWGM5HT8KY9M9PLZR6M3SLUZ1R1,160,0.26148909479,0.460071212732,0.606546526811,0.307855002198,right,2,326,True,left,1,3,204,1,1
0,37UEWGM5HT8KY9M9PLZR6M3SLUZ1R1,161,0.274099036929,0.459478985881,0.637334141907,0.33532419807,right,2,288,True,left,1,3,210,1,1
0,37UEWGM5HT8KY9M9PLZR6M3SLUZ1R1,162,0.307966452014,0.46872058764,0.637873391684,0.34623859314,right,2,80,True,left,1,3,274,0,1
0,37UEWGM5HT8KY9M9PLZR6M3SLUZ1R1,163,0.270379620162,0.466356103946,0.646717215096,0.393464062872,right,2,38,True,right,2,3,299,0,1
0,37UEWGM5HT8KY9M9PLZR6M3SLUZ1R1,164,0.251737674833,0.479336880963,0.619903246132,0.413261205596,right,2,101,False,right,2,2,243,0,1
0,37UEWGM5HT8KY9M9PLZR6M3SLUZ1R1,165,0.286525398425,0.440569128367,0.665760959524,0.388390710515,left,1,246,True,left,1,2,212,1,1
0,37UEWGM5HT8KY9M9PLZR6M3SLUZ1R1,166,0.261801143272,0.465180125042,0.643203603033,0.383915211172,left,1,239,False,left,1,3,220,1,1
0,37UEWGM5HT8KY9M9PLZR6M3SLUZ1R1,167,0.272758270544,0.481601358765,0.636703274324,0.398893295312,left,1,281,True,left,1,2,236,1,1
0,37UEWGM5HT8KY9M9PLZR6M3SLUZ1R1,168,0.269275042302,0.502893453039,0.650418341444,0.359880215179,left,1,318,True,left,1,2,228,0,1
0,37UEWGM5HT8KY9M9PLZR6M3SLUZ1R1,169,0.321244877244,0.528573132907,0.66957626249,0.376463063499,left,1,303,True,left,1,2,284,0,1
0,37UEWGM5HT8KY9M9PLZR6M3SLUZ1R1,170,0.327522928076,0.508532688437,0.657874425455,0.417988749297,left,1,263,True,right,2,2,291,1,1
0,37UEWGM5HT8KY9M9PLZR6M3SLUZ1R1,171,0.34872481577,0.521911121289,0.655656229698,0.380266706389,left,1,342,True,right,2,2,237,0,1
0,37UEWGM5HT8KY9M9PLZR6M3SLUZ1R1,172,0.336841396031,0.530428789858,0.665971836127,0.435348605431,left,1,297,False,left,1,3,267,1,1
0,37UEWGM5HT8KY9M9PLZR6M3SLUZ1R1,173,0.341837444982,0.543180536576,0.641218605426,0.435268405162,left,1,271,True,left,1,2,204,0,1
0,37UEWGM5HT8KY9M9PLZR6M3SLUZ1R1,174,0.361177028459,0.521201170706,0.655514534501,0.398994989097,left,1,270,True,right,2,2,220,1,1
0,37UEWGM5HT8KY9M9PLZR6M3SLUZ1R1,175,0.364315395636,0.512763678168,0.648019936904,0.412392336042,left,1,279,True,right,2,2,203,1,1
0,37UEWGM5HT8KY9M9PLZR6M3SLUZ1R1,176,0.325623919085,0.539890651839,0.64529531605,0.410745872858,left,1,312,True,right,2,2,220,0,1
0,37UEWGM5HT8KY9M9PLZR6M3SLUZ1R1,177,0.328074179675,0.524925149085,0.619815607172,0.411582007364,left,1,262,True,right,2,2,172,1,1
0,37UEWGM5HT8KY9M9PLZR6M3SLUZ1R1,178,0.305001535271,0.493612808469,0.65849625896,0.406841658435,left,1,271,False,right,2,3,180,0,1
0,37UEWGM5HT8KY9M9PLZR6M3SLUZ1R1,179,0.33002181643,0.469098789392,0.665879712377,0.388386596992,left,1,272,False,left,1,3,203,1,1
0,37UEWGM5HT8KY9M9PLZR6M3SLUZ1R1,180,0.325471872487,0.471028202714,0.645318430493,0.362128500137,left,1,270,True,left,1,2,227,0,1
0,37UEWGM5HT8KY9M9PLZR6M3SLUZ1R1,181,0.302119409191,0.487451370839,0.634210371211,0.361006423102,left,1,247,True,right,2,2,107,0,1
0,37UEWGM5HT8KY9M9PLZR6M3SLUZ1R1,182,0.319687136795,0.53025520447,0.645170330557,0.344822759162,left,1,686,True,right,2,2,427,0,1
0,37UEWGM5HT8KY9M9PLZR6M3SLUZ1R1,183,0.340622623277,0.558125328014,0.642579369694,0.339710510642,right,2,302,True,right,2,3,155,0,1
0,37UEWGM5HT8KY9M9PLZR6M3SLUZ1R1,184,0.326804303598,0.549400692329,0.592456717601,0.330638649531,right,2,175,True,left,1,3,140,0,1
0,37UEWGM5HT8KY9M9PLZR6M3SLUZ1R1,185,0.330197767995,0.557380521394,0.611489817058,0.338332086986,left,1,247,False,left,1,3,268,1,1
0,37UEWGM5HT8KY9M9PLZR6M3SLUZ1R1,186,0.305779190282,0.583624605417,0.613460177028,0.345801403967,left,1,232,False,left,1,3,195,1,1
0,37UEWGM5HT8KY9M9PLZR6M3SLUZ1R1,187,0.301883092183,0.622316346564,0.630140532196,0.38159969755,left,1,280,True,left,1,2,211,0,1
0,37UEWGM5HT8KY9M9PLZR6M3SLUZ1R1,188,0.312907636544,0.586220534512,0.613095018461,0.400276008253,left,1,551,False,right,2,3,277,1,1
0,37UEWGM5HT8KY9M9PLZR6M3SLUZ1R1,189,0.352377051111,0.586986758336,0.572784351066,0.344680966765,left,1,304,True,right,2,2,261,0,1
0,37UEWGM5HT8KY9M9PLZR6M3SLUZ1R1,190,0.344876724602,0.638157165375,0.581975754788,0.351436314975,left,1,239,True,left,1,2,300,1,1
0,37UEWGM5HT8KY9M9PLZR6M3SLUZ1R1,191,0.392391798853,0.667164906322,0.552605566262,0.325587875814,left,1,271,False,left,1,3,340,0,1
0,37UEWGM5HT8KY9M9PLZR6M3SLUZ1R1,192,0.412042040593,0.644357666507,0.547124920533,0.329218442292,left,1,270,True,left,1,2,300,1,1
0,37UEWGM5HT8KY9M9PLZR6M3SLUZ1R1,193,0.379965792173,0.664566689272,0.570912410757,0.325998113065,left,1,319,True,left,1,2,372,0,1
0,37UEWGM5HT8KY9M9PLZR6M3SLUZ1R1,194,0.389664565012,0.664375095335,0.55849233557,0.366447813253,left,1,278,True,right,2,2,500,0,1
0,37UEWGM5HT8KY9M9PLZR6M3SLUZ1R1,195,0.395044614715,0.72543228023,0.519210011433,0.355126527027,left,1,303,True,left,1,2,620,0,1
0,37UEWGM5HT8KY9M9PLZR6M3SLUZ1R1,196,0.383792753181,0.712424710636,0.479336007569,0.387209370348,right,2,142,True,right,2,3,292,1,1
0,37UEWGM5HT8KY9M9PLZR6M3SLUZ1R1,197,0.37306997392,0.734290462084,0.460441785745,0.375364189949,right,2,319,False,right,2,2,316,1,1
0,37UEWGM5HT8KY9M9PLZR6M3SLUZ1R1,198,0.440370694377,0.747560565418,0.460608262771,0.410302321559,right,2,302,False,right,2,2,140,1,1
0,37UEWGM5HT8KY9M9PLZR6M3SLUZ1R1,199,0.471404410712,0.7366478523,0.467873357418,0.375276531813,right,2,368,True,right,2,3,243,0,1
0,37UEWGM5HT8KY9M9PLZR6M3SLUZ1R1,200,0.487117657235,0.736005509776,0.446751124312,0.402649308091,right,2,166,True,right,2,3,84,1,1
1,3Q8GYXHFEP2FGPY98BB8KHHNX42C5F,1,0.742621470936,0.272532468277,0.71669309271,0.479056705494,right,2,2222,True,left,1,3,1719,1,1
1,3Q8GYXHFEP2FGPY98BB8KHHNX42C5F,2,0.714054437546,0.28956974681,0.711770360008,0.456458310278,right,2,956,True,left,1,3,749,0,1
1,3Q8GYXHFEP2FGPY98BB8KHHNX42C5F,3,0.708947909512,0.346194423994,0.714402963935,0.46593679168,right,2,662,True,left,1,3,1029,1,1
1,3Q8GYXHFEP2FGPY98BB8KHHNX42C5F,4,0.732490347346,0.339447868367,0.704013189795,0.385709276536,left,1,1352,True,left,1,2,1633,1,1
1,3Q8GYXHFEP2FGPY98BB8KHHNX42C5F,5,0.717249489061,0.407606752597,0.721518196281,0.422206287292,left,1,567,False,left,1,3,826,1,1
1,3Q8GYXHFEP2FGPY98BB8KHHNX42C5F,6,0.6630928988,0.45511262148,0.721181153667,0.404565489562,left,1,465,True,left,1,2,957,1,1
1,3Q8GYXHFEP2FGPY98BB8KHHNX42C5F,7,0.672738831011,0.474384545792,0.743141113631,0.381869747044,right,2,370,True,left,1,3,675,0,1
1,3Q8GYXHFEP2FGPY98BB8KHHNX42C5F,8,0.668045339679,0.480846588706,0.731564879728,0.405588632962,left,1,692,True,left,1,2,630,1,1
1,3Q8GYXHFEP2FGPY98BB8KHHNX42C5F,9,0.669015262022,0.513473956177,0.728107518412,0.40687276212,left,1,374,False,left,1,3,732,1,1
1,3Q8GYXHFEP2FGPY98BB8KHHNX42C5F,10,0.64671120204,0.526146178979,0.730336497662,0.408509497299,left,1,371,True,left,1,2,903,1,1
1,3Q8GYXHFEP2FGPY98BB8KHHNX42C5F,11,0.607944402512,0.543315429143,0.724719472529,0.381349699905,left,1,592,True,right,2,2,652,1,1
1,3Q8GYXHFEP2FGPY98BB8KHHNX42C5F,12,0.623056850805,0.526648888826,0.697371744877,0.395908106836,left,1,485,True,right,2,2,696,0,1
1,3Q8GYXHFEP2FGPY98BB8KHHNX42C5F,13,0.607721669601,0.554902084053,0.689983332344,0.380218517946,left,1,309,True,left,1,2,393,1,1
1,3Q8GYXHFEP2FGPY98BB8KHHNX42C5F,14,0.642416333717,0.576955978171,0.708708278957,0.341168637042,left,1,433,True,left,1,2,379,1,1
1,3Q8GYXHFEP2FGPY98BB8KHHNX42C5F,15,0.614010351756,0.604034382831,0.732507162725,0.350118401239,left,1,404,True,left,1,2,335,1,1
1,3Q8GYXHFEP2FGPY98BB8KHHNX42C5F,16,0.680413307829,0.594441283734,0.716261232916,0.355798838571,left,1,471,True,left,1,2,363,1,1
1,3Q8GYXHFEP2FGPY98BB8KHHNX42C5F,17,0.67102435131,0.588086274504,0.730069464085,0.330877938548,left,1,364,True,left,1,2,311,1,1
1,3Q8GYXHFEP2FGPY98BB8KHHNX42C5F,18,0.718432568922,0.568204732239,0.686176168762,0.309765161617,left,1,399,True,left,1,2,331,1,1
1,3Q8GYXHFEP2FGPY98BB8KHHNX42C5F,19,0.713141823764,0.57865702431,0.696062430132,0.367234912443,left,1,360,False,left,1,3,375,1,1
1,3Q8GYXHFEP2FGPY98BB8KHHNX42C5F,20,0.707002308783,0.572723191735,0.701021460261,0.344983910079,left,1,370,True,left,1,2,527,1,1
1,3Q8GYXHFEP2FGPY98BB8KHHNX42C5F,21,0.697338532194,0.583247904064,0.713862580976,0.369623913462,left,1,402,True,left,1,2,386,1,1
1,3Q8GYXHFEP2FGPY98BB8KHHNX42C5F,22,0.683738606376,0.577831132902,0.720175638244,0.347221826515,left,1,446,True,left,1,2,369,1,1
1,3Q8GYXHFEP2FGPY98BB8KHHNX42C5F,23,0.723666933292,0.594247039033,0.678758987791,0.350429018148,left,1,404,False,left,1,3,335,1,1
1,3Q8GYXHFEP2FGPY98BB8KHHNX42C5F,24,0.722552862976,0.64363551746,0.657672810429,0.358987448701,left,1,356,True,left,1,2,330,0,1
1,3Q8GYXHFEP2FGPY98BB8KHHNX42C5F,25,0.729163712473,0.664465485514,0.659189229643,0.373726090068,left,1,353,True,left,1,2,352,1,1
1,3Q8GYXHFEP2FGPY98BB8KHHNX42C5F,26,0.736463051067,0.667677417009,0.633789239965,0.388062858383,left,1,369,True,left,1,2,318,1,1
1,3Q8GYXHFEP2FGPY98BB8KHHNX42C5F,27,0.743521712443,0.680410974005,0.603566014102,0.365819318125,left,1,322,False,left,1,3,480,0,1
1,3Q8GYXHFEP2FGPY98BB8KHHNX42C5F,28,0.732307752744,0.688129657145,0.639730342634,0.324473032481,right,2,1029,True,left,1,3,1073,0,1
1,3Q8GYXHFEP2FGPY98BB8KHHNX42C5F,29,0.736811669823,0.670863418611,0.612317833639,0.359797741125,right,2,329,True,right,2,3,593,0,1
1,3Q8GYXHFEP2FGPY98BB8KHHNX42C5F,30,0.743345059239,0.664878919109,0.616259626176,0.316896486661,right,2,366,True,right,2,3,401,1,1
1,3Q8GYXHFEP2FGPY98BB8KHHNX42C5F,31,0.746265616093,0.667204230628,0.57959946249,0.31335500672,right,2,347,False,right,2,2,425,1,1
1,3Q8GYXHFEP2FGPY98BB8KHHNX42C5F,32,0.723199980689,0.64267698388,0.581017754762,0.308527186817,right,2,675,True,right,2,3,2433,0,1
1,3Q8GYXHFEP2FGPY98BB8KHHNX42C5F,33,0.694695825122,0.703101902478,0.568902198934,0.290605018323,left,1,335,True,left,1,2,677,1,1
1,3Q8GYXHFEP2FGPY98BB8KHHNX42C5F,34,0.67334094861,0.696419411433,0.578031478635,0.309599444775,left,1,375,True,left,1,2,459,1,1
1,3Q8GYXHFEP2FGPY98BB8KHHNX42C5F,35,0.652335091449,0.70438345769,0.59605536339,0.279470956194,left,1,353,True,left,1,2,471,0,1
1,3Q8GYXHFEP2FGPY98BB8KHHNX42C5F,36,0.657451953133,0.683837920999,0.568078580687,0.27404823551,right,2,421,True,left,1,3,800,0,1
1,3Q8GYXHFEP2FGPY98BB8KHHNX42C5F,37,0.675374672435,0.712212599172,0.561377542482,0.284355796866,right,2,684,True,right,2,3,1589,0,1
1,3Q8GYXHFEP2FGPY98BB8KHHNX42C5F,38,0.671284094134,0.716259324014,0.566258884749,0.269938039503,left,1,398,True,right,2,2,908,1,1
1,3Q8GYXHFEP2FGPY98BB8KHHNX42C5F,39,0.654751036327,0.744322707512,0.618638427368,0.294912002446,left,1,376,True,right,2,2,438,1,1
1,3Q8GYXHFEP2FGPY98BB8KHHNX42C5F,40,0.660675754074,0.685611640794,0.605892201903,0.270200805787,left,1,418,True,right,2,2,488,1,1
1,3Q8GYXHFEP2FGPY98BB8KHHNX42C5F,41,0.697626230879,0.729448779435,0.608670557774,0.256991528728,left,1,351,True,right,2,2,586,0,1
1,3Q8GYXHFEP2FGPY98BB8KHHNX42C5F,42,0.726645073604,0.717332378805,0.603307527487,0.277574736158,left,1,318,False,right,2,3,2100,0,1
1,3Q8GYXHFEP2FGPY98BB8KHHNX42C5F,43,0.710785605187,0.73572032618,0.603035835786,0.300463039776,left,1,718,True,right,2,2,1529,1,1
1,3Q8GYXHFEP2FGPY98BB8KHHNX42C5F,44,0.690886938659,0.740720643321,0.608800181298,0.305367115844,left,1,377,True,right,2,2,650,0,1
1,3Q8GYXHFEP2FGPY98BB8KHHNX42C5F,45,0.682073026999,0.726886066092,0.597549552128,0.298118154697,left,1,366,False,left,1,3,449,0,1
1,3Q8GYXHFEP2FGPY98BB8KHHNX42C5F,46,0.692167085493,0.701363725585,0.639345636163,0.368054277054,left,1,905,False,right,2,3,1595,0,1
1,3Q8GYXHFEP2FGPY98BB8KHHNX42C5F,47,0.726979525113,0.685298681928,0.665140217735,0.392550601145,left,1,311,True,left,1,2,454,0,1
1,3Q8GYXHFEP2FGPY98BB8KHHNX42C5F,48,0.734914379351,0.68153045423,0.667316355854,0.380373869228,left,1,1661,True,right,2,2,1122,1,1
1,3Q8GYXHFEP2FGPY98BB8KHHNX42C5F,49,0.714865063908,0.653994687644,0.672014216512,0.367354016553,left,1,433,True,right,2,2,510,1,1
1,3Q8GYXHFEP2FGPY98BB8KHHNX42C5F,50,0.713201331899,0.676140093398,0.674811303487,0.344411485936,left,1,385,True,right,2,2,508,1,1
1,3Q8GYXHFEP2FGPY98BB8KHHNX42C5F,51,0.73310943824,0.669322372281,0.662652287375,0.29720573873,left,1,387,False,left,1,3,2269,0,1
1,3Q8GYXHFEP2FGPY98BB8KHHNX42C5F,52,0.700235093867,0.701682886358,0.677069605794,0.332317401302,left,1,365,True,right,2,2,1504,1,1
1,3Q8GYXHFEP2FGPY98BB8KHHNX42C5F,53,0.681608516568,0.679629779822,0.681276831864,0.288342858569,left,1,377,True,right,2,2,462,1,1
1,3Q8GYXHFEP2FGPY98BB8KHHNX42C5F,54,0.611253601709,0.660626826063,0.70952385264,0.330572173264,left,1,362,False,right,2,3,427,0,1
1,3Q8GYXHFEP2FGPY98BB8KHHNX42C5F,55,0.66703777187,0.672946186741,0.737926106414,0.317011361338,left,1,322,True,right,2,2,841,0,1
1,3Q8GYXHFEP2FGPY98BB8KHHNX42C5F,56,0.663328365422,0.668736431958,0.720239436976,0.329794236079,right,2,380,True,left,1,3,1570,1,1
1,3Q8GYXHFEP2FGPY98BB8KHHNX42C5F,57,0.612291779763,0.64812962841,0.714275483314,0.285713898761,right,2,338,False,right,2,2,1318,1,1
1,3Q8GYXHFEP2FGPY98BB8KHHNX42C5F,58,0.601996752534,0.690302803125,0.676016484568,0.271887355155,right,2,565,True,left,1,3,1032,0,1
1,3Q8GYXHFEP2FGPY98BB8KHHNX42C5F,59,0.613291721538,0.709488073072,0.661531678887,0.299130690859,right,2,458,True,left,1,3,1444,0,1
1,3Q8GYXHFEP2FGPY98BB8KHHNX42C5F,60,0.576180172387,0.710892275986,0.652653677393,0.314466701606,left,1,565,True,right,2,2,1552,1,1
1,3Q8GYXHFEP2FGPY98BB8KHHNX42C5F,61,0.55143212238,0.6853037472,0.679903912304,0.298421798989,left,1,498,True,right,2,2,471,1,1
1,3Q8GYXHFEP2FGPY98BB8KHHNX42C5F,62,0.552884156424,0.712766267125,0.703638809173,0.32433324524,left,1,452,True,right,2,2,671,0,1
1,3Q8GYXHFEP2FGPY98BB8KHHNX42C5F,63,0.523932583535,0.711521035133,0.679767370885,0.337888246509,left,1,467,False,left,1,3,2329,0,1
1,3Q8GYXHFEP2FGPY98BB8KHHNX42C5F,64,0.463568418654,0.711676676089,0.654057416911,0.301245991201,left,1,511,False,left,1,3,862,1,1
1,3Q8GYXHFEP2FGPY98BB8KHHNX42C5F,65,0.512684775876,0.72135123212,0.608900413955,0.307315993953,left,1,519,True,right,2,2,1201,1,1
1,3Q8GYXHFEP2FGPY98BB8KHHNX42C5F,66,0.4789698412,0.699848934728,0.614568831315,0.250436393356,left,1,687,True,right,2,2,449,1,1
1,3Q8GYXHFEP2FGPY98BB8KHHNX42C5F,67,0.4762029504,0.694385754211,0.632767436931,0.284111851193,left,1,408,True,right,2,2,504,1,1
1,3Q8GYXHFEP2FGPY98BB8KHHNX42C5F,68,0.507081830395,0.677726367322,0.626004736862,0.317292542624,left,1,453,False,right,2,3,518,1,1
1,3Q8GYXHFEP2FGPY98BB8KHHNX42C5F,69,0.530878795539,0.655313569542,0.603059838512,0.35399122944,left,1,396,True,right,2,2,726,0,1
1,3Q8GYXHFEP2FGPY98BB8KHHNX42C5F,70,0.515056866669,0.621614881021,0.58701353054,0.316633763971,left,1,337,True,right,2,2,520,0,1
1,3Q8GYXHFEP2FGPY98BB8KHHNX42C5F,71,0.564088952011,0.605891511566,0.597831961545,0.302344162838,left,1,354,True,left,1,2,635,1,1
1,3Q8GYXHFEP2FGPY98BB8KHHNX42C5F,72,0.54449084523,0.577146163723,0.59199090907,0.331577263471,left,1,387,True,left,1,2,363,0,1
1,3Q8GYXHFEP2FGPY98BB8KHHNX42C5F,73,0.566979079908,0.605338027274,0.564635273227,0.330100786862,left,1,760,True,left,1,2,417,0,1
1,3Q8GYXHFEP2FGPY98BB8KHHNX42C5F,74,0.551299433382,0.607923806021,0.548505305566,0.309216084463,right,2,349,False,right,2,2,1672,0,1
1,3Q8GYXHFEP2FGPY98BB8KHHNX42C5F,75,0.542745978,0.589975468932,0.538285961481,0.334258316899,right,2,300,True,right,2,3,1232,1,1
1,3Q8GYXHFEP2FGPY98BB8KHHNX42C5F,76,0.561497649091,0.630898581991,0.556776422344,0.331123452327,right,2,532,True,right,2,3,517,1,1
1,3Q8GYXHFEP2FGPY98BB8KHHNX42C5F,77,0.589017199812,0.627952603444,0.550030110147,0.346628080055,right,2,364,True,right,2,3,427,0,1
1,3Q8GYXHFEP2FGPY98BB8KHHNX42C5F,78,0.584186560288,0.579581394278,0.557708870011,0.372955434066,right,2,375,False,right,2,2,370,1,1
1,3Q8GYXHFEP2FGPY98BB8KHHNX42C5F,79,0.663978965977,0.603348757443,0.596450133085,0.335534554466,right,2,509,True,right,2,3,502,0,1
1,3Q8GYXHFEP2FGPY98BB8KHHNX42C5F,80,0.685488538842,0.661324828013,0.628562826405,0.317508487146,right,2,363,True,left,1,3,496,0,1
1,3Q8GYXHFEP2FGPY98BB8KHHNX42C5F,81,0.689540608913,0.642447759192,0.639191253292,0.280146174731,left,1,405,True,right,2,2,533,1,1
1,3Q8GYXHFEP2FGPY98BB8KHHNX42C5F,82,0.710426203535,0.655563840418,0.647453282745,0.260992840152,left,1,458,False,left,1,3,1824,0,1
1,3Q8GYXHFEP2FGPY98BB8KHHNX42C5F,83,0.69084005601,0.626748569246,0.618006356653,0.265458837477,left,1,383,False,right,2,3,1725,0,1
1,3Q8GYXHFEP2FGPY98BB8KHHNX42C5F,84,0.66045000665,0.589118902235,0.582373787352,0.266296660997,left,1,445,True,right,2,2,585,1,1
1,3Q8GYXHFEP2FGPY98BB8KHHNX42C5F,85,0.692987016621,0.603946174416,0.594937517543,0.304179889849,left,1,600,False,left,1,3,2074,1,1
1,3Q8GYXHFEP2FGPY98BB8KHHNX42C5F,86,0.742301951068,0.638028136197,0.598561432857,0.339665013074,left,1,463,True,right,2,2,939,1,1
1,3Q8GYXHFEP2FGPY98BB8KHHNX42C5F,87,0.686698795879,0.686641888378,0.563299184018,0.332946702685,left,1,482,True,right,2,2,564,1,1
1,3Q8GYXHFEP2FGPY98BB8KHHNX42C5F,88,0.690926289258,0.664793565833,0.567644663702,0.350846869979,left,1,435,False,left,1,3,2197,0,1
1,3Q8GYXHFEP2FGPY98BB8KHHNX42C5F,89,0.639906407079,0.672512670635,0.552287929984,0.382400271729,left,1,328,True,right,2,2,536,1,1
1,3Q8GYXHFEP2FGPY98BB8KHHNX42C5F,90,0.599526089753,0.702037914288,0.551499978304,0.385810615866,left,1,394,True,right,2,2,554,1,1
1,3Q8GYXHFEP2FGPY98BB8KHHNX42C5F,91,0.571792989341,0.691019576673,0.521950006971,0.435034807193,left,1,636,True,right,2,2,637,1,1
1,3Q8GYXHFEP2FGPY98BB8KHHNX42C5F,92,0.584683137779,0.706512645771,0.51122706761,0.445767985761,left,1,447,True,right,2,2,768,1,1
1,3Q8GYXHFEP2FGPY98BB8KHHNX42C5F,93,0.554861172246,0.711737596545,0.492981519726,0.440683358106,left,1,498,True,right,2,2,526,1,1
1,3Q8GYXHFEP2FGPY98BB8KHHNX42C5F,94,0.56691541983,0.724832553503,0.484850092769,0.421860460474,left,1,466,True,right,2,2,453,0,1
1,3Q8GYXHFEP2FGPY98BB8KHHNX42C5F,95,0.566678637331,0.720026008902,0.464133901312,0.41295891552,left,1,478,True,right,2,2,506,0,1
1,3Q8GYXHFEP2FGPY98BB8KHHNX42C5F,96,0.526879516376,0.731858231709,0.476966682047,0.397678154404,left,1,302,False,right,2,3,1548,0,1
1,3Q8GYXHFEP2FGPY98BB8KHHNX42C5F,97,0.495215171763,0.724235293032,0.515579848533,0.441247188452,left,1,796,True,left,1,2,1435,0,1
1,3Q8GYXHFEP2FGPY98BB8KHHNX42C5F,98,0.451702131943,0.722808342847,0.534160534675,0.393018126972,right,2,295,True,left,1,3,1120,1,1
1,3Q8GYXHFEP2FGPY98BB8KHHNX42C5F,99,0.472061866997,0.665813203964,0.484894662984,0.383038572744,right,2,376,False,left,1,2,447,0,1
1,3Q8GYXHFEP2FGPY98BB8KHHNX42C5F,100,0.44047725176,0.677258434574,0.482475294507,0.368141735434,right,2,348,False,right,2,2,2227,1,1
1,3Q8GYXHFEP2FGPY98BB8KHHNX42C5F,101,0.465939039681,0.675360161858,0.477210773749,0.392195785011,right,2,352,False,right,2,2,1392,1,1
1,3Q8GYXHFEP2FGPY98BB8KHHNX42C5F,102,0.484780332161,0.725432311224,0.488300642483,0.393341274419,right,2,529,True,-1,2,3,2501,-1,1
1,3Q8GYXHFEP2FGPY98BB8KHHNX42C5F,103,0.483232027022,0.713118198543,0.510764901989,0.382117662374,right,2,482,True,right,2,3,435,1,1
1,3Q8GYXHFEP2FGPY98BB8KHHNX42C5F,104,0.487664781079,0.746520841043,0.488735788724,0.354687213322,right,2,667,False,right,2,2,329,1,1
1,3Q8GYXHFEP2FGPY98BB8KHHNX42C5F,105,0.466196046634,0.738623462929,0.484563566009,0.359013680846,right,2,386,True,right,2,3,788,1,1
1,3Q8GYXHFEP2FGPY98BB8KHHNX42C5F,106,0.442305640081,0.735684662005,0.457603870736,0.422503378505,right,2,319,True,right,2,3,412,0,1
1,3Q8GYXHFEP2FGPY98BB8KHHNX42C5F,107,0.431291039251,0.737970405597,0.474213679147,0.440406871436,right,2,319,True,right,2,3,330,0,1
1,3Q8GYXHFEP2FGPY98BB8KHHNX42C5F,108,0.411758552591,0.726683838125,0.424416267289,0.437138352581,right,2,316,True,left,1,3,570,0,1
1,3Q8GYXHFEP2FGPY98BB8KHHNX42C5F,109,0.426170150128,0.716216452261,0.437737338122,0.394549101032,left,1,401,True,right,2,2,450,0,1
1,3Q8GYXHFEP2FGPY98BB8KHHNX42C5F,110,0.459510607636,0.734927828656,0.409597477729,0.408865363166,left,1,313,True,left,1,2,464,1,1
1,3Q8GYXHFEP2FGPY98BB8KHHNX42C5F,111,0.427067584609,0.687396330944,0.422055811318,0.420048706351,left,1,321,True,left,1,2,301,0,1
1,3Q8GYXHFEP2FGPY98BB8KHHNX42C5F,112,0.396708940978,0.671869621097,0.433717704758,0.409536015214,left,1,447,True,left,1,2,595,0,1
1,3Q8GYXHFEP2FGPY98BB8KHHNX42C5F,113,0.392163878606,0.674074699172,0.421056076456,0.417970716472,left,1,312,True,right,2,2,1005,0,1
1,3Q8GYXHFEP2FGPY98BB8KHHNX42C5F,114,0.405190010723,0.621025368561,0.435236166576,0.408741840632,right,2,311,False,right,2,2,1717,1,1
1,3Q8GYXHFEP2FGPY98BB8KHHNX42C5F,115,0.438900538552,0.653627324378,0.436495632727,0.413355976541,right,2,395,False,right,2,2,648,0,1
1,3Q8GYXHFEP2FGPY98BB8KHHNX42C5F,116,0.466364070331,0.639706334825,0.420982311789,0.37690224461,right,2,326,False,right,2,2,1104,0,1
1,3Q8GYXHFEP2FGPY98BB8KHHNX42C5F,117,0.44593666449,0.664991972369,0.444372392431,0.369366843978,right,2,325,True,right,2,3,1367,0,1
1,3Q8GYXHFEP2FGPY98BB8KHHNX42C5F,118,0.412733194721,0.661210229012,0.483239814095,0.329894679932,right,2,325,False,left,1,2,1268,1,1
1,3Q8GYXHFEP2FGPY98BB8KHHNX42C5F,119,0.431345823754,0.653591919012,0.468808732687,0.333441714697,right,2,322,True,left,1,3,731,1,1
1,3Q8GYXHFEP2FGPY98BB8KHHNX42C5F,120,0.447208271084,0.62713216337,0.475007496911,0.32802780441,right,2,363,True,left,1,3,419,0,1
1,3Q8GYXHFEP2FGPY98BB8KHHNX42C5F,121,0.504181576761,0.598908450997,0.515211526458,0.320161421711,right,2,331,False,right,2,2,1267,1,1
1,3Q8GYXHFEP2FGPY98BB8KHHNX42C5F,122,0.538685689494,0.59872734267,0.581245967994,0.326761785411,right,2,511,True,left,1,3,951,1,1
1,3Q8GYXHFEP2FGPY98BB8KHHNX42C5F,123,0.545842916492,0.565631827948,0.572375519669,0.349220564181,right,2,350,True,left,1,3,490,1,1
1,3Q8GYXHFEP2FGPY98BB8KHHNX42C5F,124,0.534424600245,0.575336677774,0.589370511578,0.317026148602,right,2,375,False,left,1,2,425,0,1
1,3Q8GYXHFEP2FGPY98BB8KHHNX42C5F,125,0.526371932117,0.577041141149,0.5830435132,0.304210055249,right,2,365,True,left,1,3,522,1,1
1,3Q8GYXHFEP2FGPY98BB8KHHNX42C5F,126,0.49512953076,0.52563292561,0.545587063314,0.312630586025,right,2,414,False,right,2,2,1231,1,1
1,3Q8GYXHFEP2FGPY98BB8KHHNX42C5F,127,0.530068526255,0.510034012006,0.577867996947,0.29247870187,right,2,489,True,left,1,3,546,1,1
1,3Q8GYXHFEP2FGPY98BB8KHHNX42C5F,128,0.521176469857,0.476556608777,0.587986796524,0.287512284603,right,2,832,True,left,1,3,808,1,1
1,3Q8GYXHFEP2FGPY98BB8KHHNX42C5F,129,0.517407173469,0.451511907077,0.63486949102,0.272527687021,right,2,1084,True,left,1,3,494,1,1
1,3Q8GYXHFEP2FGPY98BB8KHHNX42C5F,130,0.519013950795,0.441926101218,0.638098815725,0.259425093522,right,2,399,False,right,2,2,1132,0,1
1,3Q8GYXHFEP2FGPY98BB8KHHNX42C5F,131,0.498890596703,0.467441570089,0.653874797874,0.255058599684,right,2,314,True,left,1,3,605,1,1
1,3Q8GYXHFEP2FGPY98BB8KHHNX42C5F,132,0.506975099993,0.5138196349,0.723727134143,0.289296114384,right,2,344,True,left,1,3,544,0,1
1,3Q8GYXHFEP2FGPY98BB8KHHNX42C5F,133,0.478373189761,0.515418585011,0.739344280162,0.319696009516,right,2,294,True,left,1,3,479,0,1
1,3Q8GYXHFEP2FGPY98BB8KHHNX42C5F,134,0.464117630012,0.505406846973,0.710796212728,0.358548929167,right,2,305,False,left,1,2,1799,1,1
1,3Q8GYXHFEP2FGPY98BB8KHHNX42C5F,135,0.438161564291,0.512963083972,0.663310280412,0.414164557033,right,2,448,False,left,1,2,919,1,1
1,3Q8GYXHFEP2FGPY98BB8KHHNX42C5F,136,0.437804854271,0.521267445542,0.707140312177,0.381977117266,right,2,478,False,left,1,2,820,0,1
1,3Q8GYXHFEP2FGPY98BB8KHHNX42C5F,137,0.39550576703,0.530734677637,0.722301577653,0.386129965171,right,2,344,True,right,2,3,932,1,1
1,3Q8GYXHFEP2FGPY98BB8KHHNX42C5F,138,0.369825946503,0.529297444232,0.705073970166,0.412192170598,right,2,351,True,right,2,3,430,1,1
1,3Q8GYXHFEP2FGPY98BB8KHHNX42C5F,139,0.340955933434,0.535677091359,0.676049799996,0.397064309229,right,2,398,True,right,2,3,679,1,1
1,3Q8GYXHFEP2FGPY98BB8KHHNX42C5F,140,0.327841930378,0.494485627413,0.67379787808,0.385319942822,right,2,430,True,right,2,3,648,0,1
1,3Q8GYXHFEP2FGPY98BB8KHHNX42C5F,141,0.346949999261,0.50276959175,0.631642167891,0.352071439617,left,1,394,True,left,1,2,1084,1,1
1,3Q8GYXHFEP2FGPY98BB8KHHNX42C5F,142,0.327683547083,0.479498572317,0.588172558354,0.338016967094,left,1,345,True,left,1,2,428,0,1
1,3Q8GYXHFEP2FGPY98BB8KHHNX42C5F,143,0.345778721519,0.463422938754,0.621093596977,0.356575357295,left,1,389,False,right,2,3,516,1,1
1,3Q8GYXHFEP2FGPY98BB8KHHNX42C5F,144,0.364945822642,0.467786950715,0.638775660409,0.387799137668,right,2,604,True,right,2,3,377,0,1
1,3Q8GYXHFEP2FGPY98BB8KHHNX42C5F,145,0.366856198242,0.479262099846,0.638164830174,0.392213022096,right,2,381,True,left,1,3,856,1,1
1,3Q8GYXHFEP2FGPY98BB8KHHNX42C5F,146,0.353443186556,0.456792617563,0.592292922404,0.419555911538,right,2,506,True,left,1,3,411,1,1
1,3Q8GYXHFEP2FGPY98BB8KHHNX42C5F,147,0.301722088337,0.45830036555,0.622835797891,0.375761582739,right,2,338,True,left,1,3,373,1,1
1,3Q8GYXHFEP2FGPY98BB8KHHNX42C5F,148,0.264341556455,0.449775355421,0.662131127511,0.349120033327,right,2,356,False,left,1,2,406,0,1
1,3Q8GYXHFEP2FGPY98BB8KHHNX42C5F,149,0.264668248755,0.494929555671,0.639769434173,0.358401192005,right,2,313,True,left,1,3,553,1,1
1,3Q8GYXHFEP2FGPY98BB8KHHNX42C5F,150,0.30110562558,0.464280328832,0.609903853688,0.377339726515,right,2,454,True,left,1,3,610,1,1
1,3Q8GYXHFEP2FGPY98BB8KHHNX42C5F,151,0.280623215878,0.481986230299,0.626281431716,0.383460733712,right,2,276,True,left,1,3,426,0,1
1,3Q8GYXHFEP2FGPY98BB8KHHNX42C5F,152,0.304683770407,0.502435718544,0.643640302365,0.391815879345,right,2,321,False,left,1,2,679,0,1
1,3Q8GYXHFEP2FGPY98BB8KHHNX42C5F,153,0.283322642867,0.498139442605,0.642128054045,0.352140031719,left,1,351,True,right,2,2,400,1,1
1,3Q8GYXHFEP2FGPY98BB8KHHNX42C5F,154,0.306269030949,0.451614361835,0.654672308956,0.348380129875,left,1,410,True,right,2,2,365,0,1
1,3Q8GYXHFEP2FGPY98BB8KHHNX42C5F,155,0.308778603441,0.402575938955,0.656372423923,0.342612192118,left,1,347,True,right,2,2,454,1,1
1,3Q8GYXHFEP2FGPY98BB8KHHNX42C5F,156,0.33451263543,0.446579202849,0.658542188835,0.357265872674,left,1,377,True,right,2,2,420,0,1
1,3Q8GYXHFEP2FGPY98BB8KHHNX42C5F,157,0.297271386897,0.430236977273,0.63540553159,0.375693693187,right,2,380,True,right,2,3,557,0,1
1,3Q8GYXHFEP2FGPY98BB8KHHNX42C5F,158,0.28858538497,0.452657205597,0.623941677319,0.338900571893,right,2,391,True,left,1,3,575,1,1
1,3Q8GYXHFEP2FGPY98BB8KHHNX42C5F,159,0.25563944793,0.465453983137,0.603769339648,0.360800282578,right,2,311,True,left,1,3,403,1,1
1,3Q8GYXHFEP2FGPY98BB8KHHNX42C5F,160,0.26148909479,0.460071212732,0.606546526811,0.307855002198,right,2,369,True,left,1,3,383,1,1
1,3Q8GYXHFEP2FGPY98BB8KHHNX42C5F,161,0.274099036929,0.459478985881,0.637334141907,0.33532419807,right,2,385,False,right,2,2,901,1,1
1,3Q8GYXHFEP2FGPY98BB8KHHNX42C5F,162,0.307966452014,0.46872058764,0.637873391684,0.34623859314,right,2,416,True,left,1,3,497,1,1
1,3Q8GYXHFEP2FGPY98BB8KHHNX42C5F,163,0.270379620162,0.466356103946,0.646717215096,0.393464062872,right,2,351,True,left,1,3,674,1,1
1,3Q8GYXHFEP2FGPY98BB8KHHNX42C5F,164,0.251737674833,0.479336880963,0.619903246132,0.413261205596,right,2,497,False,right,2,2,1049,0,1
1,3Q8GYXHFEP2FGPY98BB8KHHNX42C5F,165,0.286525398425,0.440569128367,0.665760959524,0.388390710515,right,2,520,True,left,1,3,328,1,1
1,3Q8GYXHFEP2FGPY98BB8KHHNX42C5F,166,0.261801143272,0.465180125042,0.643203603033,0.383915211172,right,2,278,True,left,1,3,386,1,1
1,3Q8GYXHFEP2FGPY98BB8KHHNX42C5F,167,0.272758270544,0.481601358765,0.636703274324,0.398893295312,right,2,362,True,left,1,3,629,1,1
1,3Q8GYXHFEP2FGPY98BB8KHHNX42C5F,168,0.269275042302,0.502893453039,0.650418341444,0.359880215179,right,2,364,False,right,2,2,1034,1,1
1,3Q8GYXHFEP2FGPY98BB8KHHNX42C5F,169,0.321244877244,0.528573132907,0.66957626249,0.376463063499,right,2,341,False,left,1,2,487,1,1
1,3Q8GYXHFEP2FGPY98BB8KHHNX42C5F,170,0.327522928076,0.508532688437,0.657874425455,0.417988749297,right,2,313,False,right,2,2,925,1,1
1,3Q8GYXHFEP2FGPY98BB8KHHNX42C5F,171,0.34872481577,0.521911121289,0.655656229698,0.380266706389,right,2,419,True,right,2,3,576,0,1
1,3Q8GYXHFEP2FGPY98BB8KHHNX42C5F,172,0.336841396031,0.530428789858,0.665971836127,0.435348605431,right,2,298,True,left,1,3,414,1,1
1,3Q8GYXHFEP2FGPY98BB8KHHNX42C5F,173,0.341837444982,0.543180536576,0.641218605426,0.435268405162,right,2,307,True,left,1,3,388,0,1
1,3Q8GYXHFEP2FGPY98BB8KHHNX42C5F,174,0.361177028459,0.521201170706,0.655514534501,0.398994989097,right,2,316,True,left,1,3,367,1,1
1,3Q8GYXHFEP2FGPY98BB8KHHNX42C5F,175,0.364315395636,0.512763678168,0.648019936904,0.412392336042,right,2,323,True,left,1,3,348,1,1
1,3Q8GYXHFEP2FGPY98BB8KHHNX42C5F,176,0.325623919085,0.539890651839,0.64529531605,0.410745872858,right,2,301,True,left,1,3,387,1,1
1,3Q8GYXHFEP2FGPY98BB8KHHNX42C5F,177,0.328074179675,0.524925149085,0.619815607172,0.411582007364,right,2,330,False,left,1,2,427,0,1
1,3Q8GYXHFEP2FGPY98BB8KHHNX42C5F,178,0.305001535271,0.493612808469,0.65849625896,0.406841658435,right,2,319,False,right,2,2,712,0,1
1,3Q8GYXHFEP2FGPY98BB8KHHNX42C5F,179,0.33002181643,0.469098789392,0.665879712377,0.388386596992,right,2,293,True,left,1,3,941,0,1
1,3Q8GYXHFEP2FGPY98BB8KHHNX42C5F,180,0.325471872487,0.471028202714,0.645318430493,0.362128500137,left,1,295,False,left,1,3,1414,0,1
1,3Q8GYXHFEP2FGPY98BB8KHHNX42C5F,181,0.302119409191,0.487451370839,0.634210371211,0.361006423102,left,1,412,True,right,2,2,1104,1,1
1,3Q8GYXHFEP2FGPY98BB8KHHNX42C5F,182,0.319687136795,0.53025520447,0.645170330557,0.344822759162,left,1,349,True,right,2,2,412,0,1
1,3Q8GYXHFEP2FGPY98BB8KHHNX42C5F,183,0.340622623277,0.558125328014,0.642579369694,0.339710510642,left,1,292,True,right,2,2,401,1,1
1,3Q8GYXHFEP2FGPY98BB8KHHNX42C5F,184,0.326804303598,0.549400692329,0.592456717601,0.330638649531,left,1,321,False,right,2,3,521,1,1
1,3Q8GYXHFEP2FGPY98BB8KHHNX42C5F,185,0.330197767995,0.557380521394,0.611489817058,0.338332086986,left,1,508,True,right,2,2,525,1,1
1,3Q8GYXHFEP2FGPY98BB8KHHNX42C5F,186,0.305779190282,0.583624605417,0.613460177028,0.345801403967,left,1,334,False,right,2,3,1099,0,1
1,3Q8GYXHFEP2FGPY98BB8KHHNX42C5F,187,0.301883092183,0.622316346564,0.630140532196,0.38159969755,left,1,351,False,left,1,3,771,0,1
1,3Q8GYXHFEP2FGPY98BB8KHHNX42C5F,188,0.312907636544,0.586220534512,0.613095018461,0.400276008253,left,1,311,True,right,2,2,842,1,1
1,3Q8GYXHFEP2FGPY98BB8KHHNX42C5F,189,0.352377051111,0.586986758336,0.572784351066,0.344680966765,left,1,309,True,right,2,2,571,1,1
1,3Q8GYXHFEP2FGPY98BB8KHHNX42C5F,190,0.344876724602,0.638157165375,0.581975754788,0.351436314975,left,1,345,True,right,2,2,698,0,1
1,3Q8GYXHFEP2FGPY98BB8KHHNX42C5F,191,0.392391798853,0.667164906322,0.552605566262,0.325587875814,left,1,307,True,right,2,2,360,1,1
1,3Q8GYXHFEP2FGPY98BB8KHHNX42C5F,192,0.412042040593,0.644357666507,0.547124920533,0.329218442292,left,1,437,True,right,2,2,432,0,1
1,3Q8GYXHFEP2FGPY98BB8KHHNX42C5F,193,0.379965792173,0.664566689272,0.570912410757,0.325998113065,left,1,322,False,left,1,3,1276,0,1
1,3Q8GYXHFEP2FGPY98BB8KHHNX42C5F,194,0.389664565012,0.664375095335,0.55849233557,0.366447813253,left,1,416,True,right,2,2,552,1,1
1,3Q8GYXHFEP2FGPY98BB8KHHNX42C5F,195,0.395044614715,0.72543228023,0.519210011433,0.355126527027,left,1,434,False,right,2,3,1147,0,1
1,3Q8GYXHFEP2FGPY98BB8KHHNX42C5F,196,0.383792753181,0.712424710636,0.479336007569,0.387209370348,left,1,571,True,right,2,2,545,1,1
1,3Q8GYXHFEP2FGPY98BB8KHHNX42C5F,197,0.37306997392,0.734290462084,0.460441785745,0.375364189949,left,1,318,True,right,2,2,554,1,1
1,3Q8GYXHFEP2FGPY98BB8KHHNX42C5F,198,0.440370694377,0.747560565418,0.460608262771,0.410302321559,left,1,365,True,right,2,2,468,1,1
1,3Q8GYXHFEP2FGPY98BB8KHHNX42C5F,199,0.471404410712,0.7366478523,0.467873357418,0.375276531813,left,1,526,False,left,1,3,1214,0,1
1,3Q8GYXHFEP2FGPY98BB8KHHNX42C5F,200,0.487117657235,0.736005509776,0.446751124312,0.402649308091,left,1,368,True,right,2,2,446,1,1
2,3NG53N1RLVJHXWQFBE4HG1QLXFO8P0,1,0.742621470936,0.272532468277,0.71669309271,0.479056705494,right,2,1283,True,left,1,3,1407,1,1
2,3NG53N1RLVJHXWQFBE4HG1QLXFO8P0,2,0.714054437546,0.28956974681,0.711770360008,0.456458310278,right,2,769,True,left,1,3,598,1,1
2,3NG53N1RLVJHXWQFBE4HG1QLXFO8P0,3,0.708947909512,0.346194423994,0.714402963935,0.46593679168,right,2,1088,True,left,1,3,554,0,1
2,3NG53N1RLVJHXWQFBE4HG1QLXFO8P0,4,0.732490347346,0.339447868367,0.704013189795,0.385709276536,right,2,622,False,right,2,2,467,0,1
2,3NG53N1RLVJHXWQFBE4HG1QLXFO8P0,5,0.717249489061,0.407606752597,0.721518196281,0.422206287292,right,2,755,True,left,1,3,789,1,1
2,3NG53N1RLVJHXWQFBE4HG1QLXFO8P0,6,0.6630928988,0.45511262148,0.721181153667,0.404565489562,right,2,1175,True,left,1,3,510,1,1
2,3NG53N1RLVJHXWQFBE4HG1QLXFO8P0,7,0.672738831011,0.474384545792,0.743141113631,0.381869747044,right,2,735,False,right,2,2,2458,1,1
2,3NG53N1RLVJHXWQFBE4HG1QLXFO8P0,8,0.668045339679,0.480846588706,0.731564879728,0.405588632962,right,2,1253,True,right,2,3,1869,1,1
2,3NG53N1RLVJHXWQFBE4HG1QLXFO8P0,9,0.669015262022,0.513473956177,0.728107518412,0.40687276212,right,2,845,True,right,2,3,866,0,1
2,3NG53N1RLVJHXWQFBE4HG1QLXFO8P0,10,0.64671120204,0.526146178979,0.730336497662,0.408509497299,left,1,755,False,right,2,3,478,1,1
2,3NG53N1RLVJHXWQFBE4HG1QLXFO8P0,11,0.607944402512,0.543315429143,0.724719472529,0.381349699905,left,1,586,True,right,2,2,1730,0,1
2,3NG53N1RLVJHXWQFBE4HG1QLXFO8P0,12,0.623056850805,0.526648888826,0.697371744877,0.395908106836,left,1,939,False,right,2,3,616,1,1
2,3NG53N1RLVJHXWQFBE4HG1QLXFO8P0,13,0.607721669601,0.554902084053,0.689983332344,0.380218517946,left,1,816,True,left,1,2,1161,1,1
2,3NG53N1RLVJHXWQFBE4HG1QLXFO8P0,14,0.642416333717,0.576955978171,0.708708278957,0.341168637042,left,1,521,True,left,1,2,478,1,1
2,3NG53N1RLVJHXWQFBE4HG1QLXFO8P0,15,0.614010351756,0.604034382831,0.732507162725,0.350118401239,left,1,648,True,left,1,2,668,1,1
2,3NG53N1RLVJHXWQFBE4HG1QLXFO8P0,16,0.680413307829,0.594441283734,0.716261232916,0.355798838571,left,1,524,True,left,1,2,530,1,1
2,3NG53N1RLVJHXWQFBE4HG1QLXFO8P0,17,0.67102435131,0.588086274504,0.730069464085,0.330877938548,left,1,593,False,right,2,3,2006,0,1
2,3NG53N1RLVJHXWQFBE4HG1QLXFO8P0,18,0.718432568922,0.568204732239,0.686176168762,0.309765161617,left,1,590,True,left,1,2,401,1,1
2,3NG53N1RLVJHXWQFBE4HG1QLXFO8P0,19,0.713141823764,0.57865702431,0.696062430132,0.367234912443,left,1,736,True,left,1,2,749,0,1
2,3NG53N1RLVJHXWQFBE4HG1QLXFO8P0,20,0.707002308783,0.572723191735,0.701021460261,0.344983910079,left,1,629,True,left,1,2,921,1,1
2,3NG53N1RLVJHXWQFBE4HG1QLXFO8P0,21,0.697338532194,0.583247904064,0.713862580976,0.369623913462,left,1,535,True,left,1,2,523,0,1
2,3NG53N1RLVJHXWQFBE4HG1QLXFO8P0,22,0.683738606376,0.577831132902,0.720175638244,0.347221826515,right,2,607,False,right,2,2,1108,1,1
2,3NG53N1RLVJHXWQFBE4HG1QLXFO8P0,23,0.723666933292,0.594247039033,0.678758987791,0.350429018148,right,2,545,True,-1,2,3,2501,-1,1
2,3NG53N1RLVJHXWQFBE4HG1QLXFO8P0,24,0.722552862976,0.64363551746,0.657672810429,0.358987448701,right,2,707,True,right,2,3,529,1,1
2,3NG53N1RLVJHXWQFBE4HG1QLXFO8P0,25,0.729163712473,0.664465485514,0.659189229643,0.373726090068,right,2,610,True,right,2,3,775,1,1
2,3NG53N1RLVJHXWQFBE4HG1QLXFO8P0,26,0.736463051067,0.667677417009,0.633789239965,0.388062858383,right,2,572,True,right,2,3,670,0,1
2,3NG53N1RLVJHXWQFBE4HG1QLXFO8P0,27,0.743521712443,0.680410974005,0.603566014102,0.365819318125,right,2,501,True,left,1,3,461,1,1
2,3NG53N1RLVJHXWQFBE4HG1QLXFO8P0,28,0.732307752744,0.688129657145,0.639730342634,0.324473032481,right,2,752,True,left,1,3,594,1,1
2,3NG53N1RLVJHXWQFBE4HG1QLXFO8P0,29,0.736811669823,0.670863418611,0.612317833639,0.359797741125,right,2,554,False,left,1,2,760,1,1
2,3NG53N1RLVJHXWQFBE4HG1QLXFO8P0,30,0.743345059239,0.664878919109,0.616259626176,0.316896486661,right,2,435,True,left,1,3,1520,0,1
2,3NG53N1RLVJHXWQFBE4HG1QLXFO8P0,31,0.746265616093,0.667204230628,0.57959946249,0.31335500672,right,2,515,False,right,2,2,1132,1,1
2,3NG53N1RLVJHXWQFBE4HG1QLXFO8P0,32,0.723199980689,0.64267698388,0.581017754762,0.308527186817,right,2,646,True,right,2,3,1460,0,1
2,3NG53N1RLVJHXWQFBE4HG1QLXFO8P0,33,0.694695825122,0.703101902478,0.568902198934,0.290605018323,left,1,635,True,left,1,2,1216,1,1
2,3NG53N1RLVJHXWQFBE4HG1QLXFO8P0,34,0.67334094861,0.696419411433,0.578031478635,0.309599444775,left,1,578,True,left,1,2,592,1,1
2,3NG53N1RLVJHXWQFBE4HG1QLXFO8P0,35,0.652335091449,0.70438345769,0.59605536339,0.279470956194,left,1,628,True,left,1,2,596,1,1
2,3NG53N1RLVJHXWQFBE4HG1QLXFO8P0,36,0.657451953133,0.683837920999,0.568078580687,0.27404823551,left,1,588,True,left,1,2,492,0,1
2,3NG53N1RLVJHXWQFBE4HG1QLXFO8P0,37,0.675374672435,0.712212599172,0.561377542482,0.284355796866,left,1,457,False,right,2,3,395,1,1
2,3NG53N1RLVJHXWQFBE4HG1QLXFO8P0,38,0.671284094134,0.716259324014,0.566258884749,0.269938039503,left,1,691,True,right,2,2,841,1,1
2,3NG53N1RLVJHXWQFBE4HG1QLXFO8P0,39,0.654751036327,0.744322707512,0.618638427368,0.294912002446,left,1,591,True,right,2,2,709,1,1
2,3NG53N1RLVJHXWQFBE4HG1QLXFO8P0,40,0.660675754074,0.685611640794,0.605892201903,0.270200805787,left,1,769,True,right,2,2,1186,0,1
2,3NG53N1RLVJHXWQFBE4HG1QLXFO8P0,41,0.697626230879,0.729448779435,0.608670557774,0.256991528728,left,1,770,True,left,1,2,455,0,1
2,3NG53N1RLVJHXWQFBE4HG1QLXFO8P0,42,0.726645073604,0.717332378805,0.603307527487,0.277574736158,right,2,533,False,right,2,2,675,1,1
2,3NG53N1RLVJHXWQFBE4HG1QLXFO8P0,43,0.710785605187,0.73572032618,0.603035835786,0.300463039776,right,2,588,True,right,2,3,1327,1,1
2,3NG53N1RLVJHXWQFBE4HG1QLXFO8P0,44,0.690886938659,0.740720643321,0.608800181298,0.305367115844,right,2,579,False,right,2,2,487,1,1
2,3NG53N1RLVJHXWQFBE4HG1QLXFO8P0,45,0.682073026999,0.726886066092,0.597549552128,0.298118154697,right,2,659,True,right,2,3,1026,0,1
2,3NG53N1RLVJHXWQFBE4HG1QLXFO8P0,46,0.692167085493,0.701363725585,0.639345636163,0.368054277054,right,2,405,True,left,1,3,1093,0,1
2,3NG53N1RLVJHXWQFBE4HG1QLXFO8P0,47,0.726979525113,0.685298681928,0.665140217735,0.392550601145,right,2,471,True,right,2,3,1220,1,1
2,3NG53N1RLVJHXWQFBE4HG1QLXFO8P0,48,0.734914379351,0.68153045423,0.667316355854,0.380373869228,right,2,551,True,right,2,3,761,1,1
2,3NG53N1RLVJHXWQFBE4HG1QLXFO8P0,49,0.714865063908,0.653994687644,0.672014216512,0.367354016553,right,2,518,True,right,2,3,1217,0,1
2,3NG53N1RLVJHXWQFBE4HG1QLXFO8P0,50,0.713201331899,0.676140093398,0.674811303487,0.344411485936,left,1,880,False,right,2,3,837,1,1
2,3NG53N1RLVJHXWQFBE4HG1QLXFO8P0,51,0.73310943824,0.669322372281,0.662652287375,0.29720573873,left,1,600,False,right,2,3,576,0,1
2,3NG53N1RLVJHXWQFBE4HG1QLXFO8P0,52,0.700235093867,0.701682886358,0.677069605794,0.332317401302,left,1,424,False,left,1,3,737,0,1
2,3NG53N1RLVJHXWQFBE4HG1QLXFO8P0,53,0.681608516568,0.679629779822,0.681276831864,0.288342858569,right,2,507,False,left,1,2,518,1,1
2,3NG53N1RLVJHXWQFBE4HG1QLXFO8P0,54,0.611253601709,0.660626826063,0.70952385264,0.330572173264,right,2,491,False,left,1,2,482,1,1
2,3NG53N1RLVJHXWQFBE4HG1QLXFO8P0,55,0.66703777187,0.672946186741,0.737926106414,0.317011361338,right,2,635,True,right,2,3,1546,1,1
2,3NG53N1RLVJHXWQFBE4HG1QLXFO8P0,56,0.663328365422,0.668736431958,0.720239436976,0.329794236079,right,2,471,True,right,2,3,639,1,1
2,3NG53N1RLVJHXWQFBE4HG1QLXFO8P0,57,0.612291779763,0.64812962841,0.714275483314,0.285713898761,right,2,491,True,right,2,3,979,0,1
2,3NG53N1RLVJHXWQFBE4HG1QLXFO8P0,58,0.601996752534,0.690302803125,0.676016484568,0.271887355155,right,2,507,True,left,1,3,474,0,1
2,3NG53N1RLVJHXWQFBE4HG1QLXFO8P0,59,0.613291721538,0.709488073072,0.661531678887,0.299130690859,left,1,723,True,right,2,2,771,0,1
2,3NG53N1RLVJHXWQFBE4HG1QLXFO8P0,60,0.576180172387,0.710892275986,0.652653677393,0.314466701606,left,1,532,True,left,1,2,482,1,1
2,3NG53N1RLVJHXWQFBE4HG1QLXFO8P0,61,0.55143212238,0.6853037472,0.679903912304,0.298421798989,left,1,566,False,left,1,3,1999,0,1
2,3NG53N1RLVJHXWQFBE4HG1QLXFO8P0,62,0.552884156424,0.712766267125,0.703638809173,0.32433324524,left,1,510,False,right,2,3,1037,0,1
2,3NG53N1RLVJHXWQFBE4HG1QLXFO8P0,63,0.523932583535,0.711521035133,0.679767370885,0.337888246509,right,2,595,True,left,1,3,1230,1,1
2,3NG53N1RLVJHXWQFBE4HG1QLXFO8P0,64,0.463568418654,0.711676676089,0.654057416911,0.301245991201,right,2,873,True,left,1,3,454,1,1
2,3NG53N1RLVJHXWQFBE4HG1QLXFO8P0,65,0.512684775876,0.72135123212,0.608900413955,0.307315993953,right,2,589,False,left,1,2,2023,0,1
2,3NG53N1RLVJHXWQFBE4HG1QLXFO8P0,66,0.4789698412,0.699848934728,0.614568831315,0.250436393356,right,2,404,False,right,2,2,963,1,1
2,3NG53N1RLVJHXWQFBE4HG1QLXFO8P0,67,0.4762029504,0.694385754211,0.632767436931,0.284111851193,right,2,468,True,right,2,3,2242,0,1
2,3NG53N1RLVJHXWQFBE4HG1QLXFO8P0,68,0.507081830395,0.677726367322,0.626004736862,0.317292542624,right,2,504,True,right,2,3,1026,1,1
2,3NG53N1RLVJHXWQFBE4HG1QLXFO8P0,69,0.530878795539,0.655313569542,0.603059838512,0.35399122944,right,2,500,True,right,2,3,939,0,1
2,3NG53N1RLVJHXWQFBE4HG1QLXFO8P0,70,0.515056866669,0.621614881021,0.58701353054,0.316633763971,left,1,488,False,right,2,3,1007,1,1
2,3NG53N1RLVJHXWQFBE4HG1QLXFO8P0,71,0.564088952011,0.605891511566,0.597831961545,0.302344162838,left,1,525,True,left,1,2,1385,0,1
2,3NG53N1RLVJHXWQFBE4HG1QLXFO8P0,72,0.54449084523,0.577146163723,0.59199090907,0.331577263471,left,1,427,True,right,2,2,1016,0,1
2,3NG53N1RLVJHXWQFBE4HG1QLXFO8P0,73,0.566979079908,0.605338027274,0.564635273227,0.330100786862,right,2,1303,True,right,2,3,869,0,1
2,3NG53N1RLVJHXWQFBE4HG1QLXFO8P0,74,0.551299433382,0.607923806021,0.548505305566,0.309216084463,right,2,480,False,left,1,2,1246,1,1
2,3NG53N1RLVJHXWQFBE4HG1QLXFO8P0,75,0.542745978,0.589975468932,0.538285961481,0.334258316899,right,2,475,True,left,1,3,580,0,1
2,3NG53N1RLVJHXWQFBE4HG1QLXFO8P0,76,0.561497649091,0.630898581991,0.556776422344,0.331123452327,right,2,1098,True,left,1,3,1531,1,1
2,3NG53N1RLVJHXWQFBE4HG1QLXFO8P0,77,0.589017199812,0.627952603444,0.550030110147,0.346628080055,right,2,785,False,left,1,2,737,0,1
2,3NG53N1RLVJHXWQFBE4HG1QLXFO8P0,78,0.584186560288,0.579581394278,0.557708870011,0.372955434066,right,2,374,False,right,2,2,534,1,1
2,3NG53N1RLVJHXWQFBE4HG1QLXFO8P0,79,0.663978965977,0.603348757443,0.596450133085,0.335534554466,right,2,486,True,right,2,3,1674,0,1
2,3NG53N1RLVJHXWQFBE4HG1QLXFO8P0,80,0.685488538842,0.661324828013,0.628562826405,0.317508487146,left,1,593,False,right,2,3,787,1,1
2,3NG53N1RLVJHXWQFBE4HG1QLXFO8P0,81,0.689540608913,0.642447759192,0.639191253292,0.280146174731,left,1,418,True,right,2,2,1796,1,1
2,3NG53N1RLVJHXWQFBE4HG1QLXFO8P0,82,0.710426203535,0.655563840418,0.647453282745,0.260992840152,left,1,423,True,right,2,2,1382,0,1
2,3NG53N1RLVJHXWQFBE4HG1QLXFO8P0,83,0.69084005601,0.626748569246,0.618006356653,0.265458837477,left,1,467,True,left,1,2,873,1,1
2,3NG53N1RLVJHXWQFBE4HG1QLXFO8P0,84,0.66045000665,0.589118902235,0.582373787352,0.266296660997,left,1,599,True,left,1,2,616,0,1
2,3NG53N1RLVJHXWQFBE4HG1QLXFO8P0,85,0.692987016621,0.603946174416,0.594937517543,0.304179889849,right,2,415,True,left,1,3,1040,1,1
2,3NG53N1RLVJHXWQFBE4HG1QLXFO8P0,86,0.742301951068,0.638028136197,0.598561432857,0.339665013074,right,2,605,False,left,1,2,478,0,1
2,3NG53N1RLVJHXWQFBE4HG1QLXFO8P0,87,0.686698795879,0.686641888378,0.563299184018,0.332946702685,right,2,383,True,right,2,3,524,0,1
2,3NG53N1RLVJHXWQFBE4HG1QLXFO8P0,88,0.690926289258,0.664793565833,0.567644663702,0.350846869979,left,1,831,True,right,2,2,666,1,1
2,3NG53N1RLVJHXWQFBE4HG1QLXFO8P0,89,0.639906407079,0.672512670635,0.552287929984,0.382400271729,left,1,458,True,right,2,2,531,1,1
2,3NG53N1RLVJHXWQFBE4HG1QLXFO8P0,90,0.599526089753,0.702037914288,0.551499978304,0.385810615866,left,1,393,True,right,2,2,470,1,1
2,3NG53N1RLVJHXWQFBE4HG1QLXFO8P0,91,0.571792989341,0.691019576673,0.521950006971,0.435034807193,left,1,15,True,right,2,2,51,0,1
2,3NG53N1RLVJHXWQFBE4HG1QLXFO8P0,92,0.584683137779,0.706512645771,0.51122706761,0.445767985761,left,1,493,False,right,2,3,1275,1,1
2,3NG53N1RLVJHXWQFBE4HG1QLXFO8P0,93,0.554861172246,0.711737596545,0.492981519726,0.440683358106,left,1,951,True,left,1,2,2071,0,1
2,3NG53N1RLVJHXWQFBE4HG1QLXFO8P0,94,0.56691541983,0.724832553503,0.484850092769,0.421860460474,left,1,466,True,right,2,2,1189,0,1
2,3NG53N1RLVJHXWQFBE4HG1QLXFO8P0,95,0.566678637331,0.720026008902,0.464133901312,0.41295891552,left,1,1029,False,right,2,3,1298,1,1
2,3NG53N1RLVJHXWQFBE4HG1QLXFO8P0,96,0.526879516376,0.731858231709,0.476966682047,0.397678154404,left,1,596,True,left,1,2,1480,0,1
2,3NG53N1RLVJHXWQFBE4HG1QLXFO8P0,97,0.495215171763,0.724235293032,0.515579848533,0.441247188452,right,2,506,False,right,2,2,758,1,1
2,3NG53N1RLVJHXWQFBE4HG1QLXFO8P0,98,0.451702131943,0.722808342847,0.534160534675,0.393018126972,right,2,581,True,right,2,3,1752,0,1
2,3NG53N1RLVJHXWQFBE4HG1QLXFO8P0,99,0.472061866997,0.665813203964,0.484894662984,0.383038572744,right,2,497,True,left,1,3,582,1,1
2,3NG53N1RLVJHXWQFBE4HG1QLXFO8P0,100,0.44047725176,0.677258434574,0.482475294507,0.368141735434,right,2,604,True,left,1,3,596,1,1
2,3NG53N1RLVJHXWQFBE4HG1QLXFO8P0,101,0.465939039681,0.675360161858,0.477210773749,0.392195785011,right,2,443,False,right,2,2,1885,1,1
2,3NG53N1RLVJHXWQFBE4HG1QLXFO8P0,102,0.484780332161,0.725432311224,0.488300642483,0.393341274419,right,2,595,False,right,2,2,605,1,1
2,3NG53N1RLVJHXWQFBE4HG1QLXFO8P0,103,0.483232027022,0.713118198543,0.510764901989,0.382117662374,right,2,420,True,right,2,3,694,1,1
2,3NG53N1RLVJHXWQFBE4HG1QLXFO8P0,104,0.487664781079,0.746520841043,0.488735788724,0.354687213322,right,2,522,True,left,1,3,965,1,1
2,3NG53N1RLVJHXWQFBE4HG1QLXFO8P0,105,0.466196046634,0.738623462929,0.484563566009,0.359013680846,right,2,384,True,left,1,3,524,1,1
2,3NG53N1RLVJHXWQFBE4HG1QLXFO8P0,106,0.442305640081,0.735684662005,0.457603870736,0.422503378505,right,2,406,True,left,1,3,1507,1,1
2,3NG53N1RLVJHXWQFBE4HG1QLXFO8P0,107,0.431291039251,0.737970405597,0.474213679147,0.440406871436,right,2,576,True,left,1,3,477,1,1
2,3NG53N1RLVJHXWQFBE4HG1QLXFO8P0,108,0.411758552591,0.726683838125,0.424416267289,0.437138352581,right,2,535,True,left,1,3,683,0,1
2,3NG53N1RLVJHXWQFBE4HG1QLXFO8P0,109,0.426170150128,0.716216452261,0.437737338122,0.394549101032,right,2,813,False,right,2,2,2006,1,1
2,3NG53N1RLVJHXWQFBE4HG1QLXFO8P0,110,0.459510607636,0.734927828656,0.409597477729,0.408865363166,right,2,517,True,right,2,3,1605,0,1
2,3NG53N1RLVJHXWQFBE4HG1QLXFO8P0,111,0.427067584609,0.687396330944,0.422055811318,0.420048706351,right,2,423,True,left,1,3,1802,0,1
2,3NG53N1RLVJHXWQFBE4HG1QLXFO8P0,112,0.396708940978,0.671869621097,0.433717704758,0.409536015214,left,1,445,False,right,2,3,553,1,1
2,3NG53N1RLVJHXWQFBE4HG1QLXFO8P0,113,0.392163878606,0.674074699172,0.421056076456,0.417970716472,left,1,584,True,right,2,2,1622,1,1
2,3NG53N1RLVJHXWQFBE4HG1QLXFO8P0,114,0.405190010723,0.621025368561,0.435236166576,0.408741840632,left,1,591,True,right,2,2,659,0,1
2,3NG53N1RLVJHXWQFBE4HG1QLXFO8P0,115,0.438900538552,0.653627324378,0.436495632727,0.413355976541,left,1,424,True,left,1,2,710,0,1
2,3NG53N1RLVJHXWQFBE4HG1QLXFO8P0,116,0.466364070331,0.639706334825,0.420982311789,0.37690224461,left,1,445,False,right,2,3,505,0,1
2,3NG53N1RLVJHXWQFBE4HG1QLXFO8P0,117,0.44593666449,0.664991972369,0.444372392431,0.369366843978,left,1,773,True,left,1,2,1362,0,1
2,3NG53N1RLVJHXWQFBE4HG1QLXFO8P0,118,0.412733194721,0.661210229012,0.483239814095,0.329894679932,right,2,401,False,right,2,2,732,1,1
2,3NG53N1RLVJHXWQFBE4HG1QLXFO8P0,119,0.431345823754,0.653591919012,0.468808732687,0.333441714697,right,2,603,False,right,2,2,490,1,1
2,3NG53N1RLVJHXWQFBE4HG1QLXFO8P0,120,0.447208271084,0.62713216337,0.475007496911,0.32802780441,right,2,482,True,-1,2,3,2500,-1,1
2,3NG53N1RLVJHXWQFBE4HG1QLXFO8P0,121,0.504181576761,0.598908450997,0.515211526458,0.320161421711,right,2,561,True,right,2,3,563,0,1
2,3NG53N1RLVJHXWQFBE4HG1QLXFO8P0,122,0.538685689494,0.59872734267,0.581245967994,0.326761785411,right,2,1234,False,right,2,2,1231,1,1
2,3NG53N1RLVJHXWQFBE4HG1QLXFO8P0,123,0.545842916492,0.565631827948,0.572375519669,0.349220564181,right,2,516,True,right,2,3,1339,1,1
2,3NG53N1RLVJHXWQFBE4HG1QLXFO8P0,124,0.534424600245,0.575336677774,0.589370511578,0.317026148602,right,2,502,False,right,2,2,815,0,1
2,3NG53N1RLVJHXWQFBE4HG1QLXFO8P0,125,0.526371932117,0.577041141149,0.5830435132,0.304210055249,right,2,481,True,right,2,3,858,0,1
2,3NG53N1RLVJHXWQFBE4HG1QLXFO8P0,126,0.49512953076,0.52563292561,0.545587063314,0.312630586025,right,2,429,True,left,1,3,745,1,1
2,3NG53N1RLVJHXWQFBE4HG1QLXFO8P0,127,0.530068526255,0.510034012006,0.577867996947,0.29247870187,right,2,503,True,left,1,3,502,1,1
2,3NG53N1RLVJHXWQFBE4HG1QLXFO8P0,128,0.521176469857,0.476556608777,0.587986796524,0.287512284603,right,2,706,True,left,1,3,496,0,1
2,3NG53N1RLVJHXWQFBE4HG1QLXFO8P0,129,0.517407173469,0.451511907077,0.63486949102,0.272527687021,left,1,368,True,right,2,2,847,1,1
2,3NG53N1RLVJHXWQFBE4HG1QLXFO8P0,130,0.519013950795,0.441926101218,0.638098815725,0.259425093522,left,1,437,False,right,2,3,2433,1,1
2,3NG53N1RLVJHXWQFBE4HG1QLXFO8P0,131,0.498890596703,0.467441570089,0.653874797874,0.255058599684,left,1,525,True,right,2,2,828,1,1
2,3NG53N1RLVJHXWQFBE4HG1QLXFO8P0,132,0.506975099993,0.5138196349,0.723727134143,0.289296114384,left,1,461,True,right,2,2,1010,1,1
2,3NG53N1RLVJHXWQFBE4HG1QLXFO8P0,133,0.478373189761,0.515418585011,0.739344280162,0.319696009516,left,1,431,True,right,2,2,598,1,1
2,3NG53N1RLVJHXWQFBE4HG1QLXFO8P0,134,0.464117630012,0.505406846973,0.710796212728,0.358548929167,left,1,477,True,right,2,2,488,0,1
2,3NG53N1RLVJHXWQFBE4HG1QLXFO8P0,135,0.438161564291,0.512963083972,0.663310280412,0.414164557033,left,1,401,True,left,1,2,1043,0,1
2,3NG53N1RLVJHXWQFBE4HG1QLXFO8P0,136,0.437804854271,0.521267445542,0.707140312177,0.381977117266,right,2,447,True,left,1,3,807,1,1
2,3NG53N1RLVJHXWQFBE4HG1QLXFO8P0,137,0.39550576703,0.530734677637,0.722301577653,0.386129965171,right,2,1399,True,left,1,3,414,1,1
2,3NG53N1RLVJHXWQFBE4HG1QLXFO8P0,138,0.369825946503,0.529297444232,0.705073970166,0.412192170598,right,2,905,True,left,1,3,481,1,1
2,3NG53N1RLVJHXWQFBE4HG1QLXFO8P0,139,0.340955933434,0.535677091359,0.676049799996,0.397064309229,right,2,453,False,left,1,2,753,1,1
2,3NG53N1RLVJHXWQFBE4HG1QLXFO8P0,140,0.327841930378,0.494485627413,0.67379787808,0.385319942822,right,2,465,True,left,1,3,472,1,1
2,3NG53N1RLVJHXWQFBE4HG1QLXFO8P0,141,0.346949999261,0.50276959175,0.631642167891,0.352071439617,right,2,659,False,left,1,2,1022,1,1
2,3NG53N1RLVJHXWQFBE4HG1QLXFO8P0,142,0.327683547083,0.479498572317,0.588172558354,0.338016967094,right,2,439,False,left,1,2,645,0,1
2,3NG53N1RLVJHXWQFBE4HG1QLXFO8P0,143,0.345778721519,0.463422938754,0.621093596977,0.356575357295,left,1,567,False,right,2,3,656,1,1
2,3NG53N1RLVJHXWQFBE4HG1QLXFO8P0,144,0.364945822642,0.467786950715,0.638775660409,0.387799137668,left,1,632,True,right,2,2,744,0,1
2,3NG53N1RLVJHXWQFBE4HG1QLXFO8P0,145,0.366856198242,0.479262099846,0.638164830174,0.392213022096,left,1,466,False,left,1,3,560,0,1
2,3NG53N1RLVJHXWQFBE4HG1QLXFO8P0,146,0.353443186556,0.456792617563,0.592292922404,0.419555911538,left,1,924,True,left,1,2,868,1,1
2,3NG53N1RLVJHXWQFBE4HG1QLXFO8P0,147,0.301722088337,0.45830036555,0.622835797891,0.375761582739,left,1,722,False,right,2,3,1760,0,1
2,3NG53N1RLVJHXWQFBE4HG1QLXFO8P0,148,0.264341556455,0.449775355421,0.662131127511,0.349120033327,left,1,784,False,left,1,3,973,0,1
2,3NG53N1RLVJHXWQFBE4HG1QLXFO8P0,149,0.264668248755,0.494929555671,0.639769434173,0.358401192005,right,2,416,True,right,2,3,1261,0,1
2,3NG53N1RLVJHXWQFBE4HG1QLXFO8P0,150,0.30110562558,0.464280328832,0.609903853688,0.377339726515,right,2,11,True,left,1,3,979,1,1
2,3NG53N1RLVJHXWQFBE4HG1QLXFO8P0,151,0.280623215878,0.481986230299,0.626281431716,0.383460733712,right,2,509,False,right,2,2,1746,1,1
2,3NG53N1RLVJHXWQFBE4HG1QLXFO8P0,152,0.304683770407,0.502435718544,0.643640302365,0.391815879345,right,2,845,True,left,1,3,1565,0,1
2,3NG53N1RLVJHXWQFBE4HG1QLXFO8P0,153,0.283322642867,0.498139442605,0.642128054045,0.352140031719,right,2,471,True,right,2,3,915,0,1
2,3NG53N1RLVJHXWQFBE4HG1QLXFO8P0,154,0.306269030949,0.451614361835,0.654672308956,0.348380129875,left,1,650,True,right,2,2,768,1,1
2,3NG53N1RLVJHXWQFBE4HG1QLXFO8P0,155,0.308778603441,0.402575938955,0.656372423923,0.342612192118,left,1,579,True,left,1,2,1333,0,1
2,3NG53N1RLVJHXWQFBE4HG1QLXFO8P0,156,0.33451263543,0.446579202849,0.658542188835,0.357265872674,left,1,455,True,right,2,2,655,0,1
2,3NG53N1RLVJHXWQFBE4HG1QLXFO8P0,157,0.297271386897,0.430236977273,0.63540553159,0.375693693187,left,1,494,True,left,1,2,1672,0,1
2,3NG53N1RLVJHXWQFBE4HG1QLXFO8P0,158,0.28858538497,0.452657205597,0.623941677319,0.338900571893,right,2,485,True,right,2,3,714,0,1
2,3NG53N1RLVJHXWQFBE4HG1QLXFO8P0,159,0.25563944793,0.465453983137,0.603769339648,0.360800282578,right,2,519,False,left,1,2,617,0,1
2,3NG53N1RLVJHXWQFBE4HG1QLXFO8P0,160,0.26148909479,0.460071212732,0.606546526811,0.307855002198,right,2,458,True,right,2,3,661,0,1
2,3NG53N1RLVJHXWQFBE4HG1QLXFO8P0,161,0.274099036929,0.459478985881,0.637334141907,0.33532419807,right,2,883,False,right,2,2,1324,0,1
2,3NG53N1RLVJHXWQFBE4HG1QLXFO8P0,162,0.307966452014,0.46872058764,0.637873391684,0.34623859314,right,2,760,False,left,1,2,679,0,1
2,3NG53N1RLVJHXWQFBE4HG1QLXFO8P0,163,0.270379620162,0.466356103946,0.646717215096,0.393464062872,left,1,699,True,right,2,2,863,0,1
2,3NG53N1RLVJHXWQFBE4HG1QLXFO8P0,164,0.251737674833,0.479336880963,0.619903246132,0.413261205596,left,1,502,True,left,1,2,472,0,1
2,3NG53N1RLVJHXWQFBE4HG1QLXFO8P0,165,0.286525398425,0.440569128367,0.665760959524,0.388390710515,left,1,583,True,left,1,2,1188,0,1
2,3NG53N1RLVJHXWQFBE4HG1QLXFO8P0,166,0.261801143272,0.465180125042,0.643203603033,0.383915211172,right,2,667,False,left,1,2,823,0,1
2,3NG53N1RLVJHXWQFBE4HG1QLXFO8P0,167,0.272758270544,0.481601358765,0.636703274324,0.398893295312,right,2,1021,False,right,2,2,522,0,1
2,3NG53N1RLVJHXWQFBE4HG1QLXFO8P0,168,0.269275042302,0.502893453039,0.650418341444,0.359880215179,left,1,501,True,left,1,2,497,1,1
2,3NG53N1RLVJHXWQFBE4HG1QLXFO8P0,169,0.321244877244,0.528573132907,0.66957626249,0.376463063499,left,1,420,True,left,1,2,411,0,1
2,3NG53N1RLVJHXWQFBE4HG1QLXFO8P0,170,0.327522928076,0.508532688437,0.657874425455,0.417988749297,left,1,3,True,right,2,2,755,1,1
2,3NG53N1RLVJHXWQFBE4HG1QLXFO8P0,171,0.34872481577,0.521911121289,0.655656229698,0.380266706389,left,1,461,True,right,2,2,418,0,1
2,3NG53N1RLVJHXWQFBE4HG1QLXFO8P0,172,0.336841396031,0.530428789858,0.665971836127,0.435348605431,left,1,460,False,left,1,3,391,0,1
2,3NG53N1RLVJHXWQFBE4HG1QLXFO8P0,173,0.341837444982,0.543180536576,0.641218605426,0.435268405162,left,1,571,True,right,2,2,961,1,1
2,3NG53N1RLVJHXWQFBE4HG1QLXFO8P0,174,0.361177028459,0.521201170706,0.655514534501,0.398994989097,left,1,395,True,left,1,2,1338,0,1
2,3NG53N1RLVJHXWQFBE4HG1QLXFO8P0,175,0.364315395636,0.512763678168,0.648019936904,0.412392336042,left,1,387,True,right,2,2,767,0,1
2,3NG53N1RLVJHXWQFBE4HG1QLXFO8P0,176,0.325623919085,0.539890651839,0.64529531605,0.410745872858,left,1,516,True,left,1,2,438,0,1
2,3NG53N1RLVJHXWQFBE4HG1QLXFO8P0,177,0.328074179675,0.524925149085,0.619815607172,0.411582007364,right,2,421,False,right,2,2,517,0,1
2,3NG53N1RLVJHXWQFBE4HG1QLXFO8P0,178,0.305001535271,0.493612808469,0.65849625896,0.406841658435,right,2,638,True,right,2,3,2103,1,1
2,3NG53N1RLVJHXWQFBE4HG1QLXFO8P0,179,0.33002181643,0.469098789392,0.665879712377,0.388386596992,right,2,700,True,right,2,3,606,1,1
2,3NG53N1RLVJHXWQFBE4HG1QLXFO8P0,180,0.325471872487,0.471028202714,0.645318430493,0.362128500137,right,2,880,True,right,2,3,1105,0,1
2,3NG53N1RLVJHXWQFBE4HG1QLXFO8P0,181,0.302119409191,0.487451370839,0.634210371211,0.361006423102,right,2,560,True,right,2,3,515,0,1
2,3NG53N1RLVJHXWQFBE4HG1QLXFO8P0,182,0.319687136795,0.53025520447,0.645170330557,0.344822759162,right,2,408,False,left,1,2,470,1,1
2,3NG53N1RLVJHXWQFBE4HG1QLXFO8P0,183,0.340622623277,0.558125328014,0.642579369694,0.339710510642,right,2,454,True,left,1,3,659,0,1
2,3NG53N1RLVJHXWQFBE4HG1QLXFO8P0,184,0.326804303598,0.549400692329,0.592456717601,0.330638649531,right,2,459,True,right,2,3,514,1,1
2,3NG53N1RLVJHXWQFBE4HG1QLXFO8P0,185,0.330197767995,0.557380521394,0.611489817058,0.338332086986,right,2,420,True,right,2,3,507,1,1
2,3NG53N1RLVJHXWQFBE4HG1QLXFO8P0,186,0.305779190282,0.583624605417,0.613460177028,0.345801403967,right,2,775,True,right,2,3,457,1,1
2,3NG53N1RLVJHXWQFBE4HG1QLXFO8P0,187,0.301883092183,0.622316346564,0.630140532196,0.38159969755,right,2,517,True,right,2,3,742,1,1
2,3NG53N1RLVJHXWQFBE4HG1QLXFO8P0,188,0.312907636544,0.586220534512,0.613095018461,0.400276008253,right,2,485,False,left,1,2,1565,0,1
2,3NG53N1RLVJHXWQFBE4HG1QLXFO8P0,189,0.352377051111,0.586986758336,0.572784351066,0.344680966765,right,2,521,True,right,2,3,468,1,1
2,3NG53N1RLVJHXWQFBE4HG1QLXFO8P0,190,0.344876724602,0.638157165375,0.581975754788,0.351436314975,right,2,511,False,right,2,2,990,1,1
2,3NG53N1RLVJHXWQFBE4HG1QLXFO8P0,191,0.392391798853,0.667164906322,0.552605566262,0.325587875814,right,2,535,True,right,2,3,831,0,1
2,3NG53N1RLVJHXWQFBE4HG1QLXFO8P0,192,0.412042040593,0.644357666507,0.547124920533,0.329218442292,right,2,533,False,right,2,2,771,1,1
2,3NG53N1RLVJHXWQFBE4HG1QLXFO8P0,193,0.379965792173,0.664566689272,0.570912410757,0.325998113065,right,2,793,False,right,2,2,927,0,1
2,3NG53N1RLVJHXWQFBE4HG1QLXFO8P0,194,0.389664565012,0.664375095335,0.55849233557,0.366447813253,right,2,394,True,right,2,3,1160,0,1
2,3NG53N1RLVJHXWQFBE4HG1QLXFO8P0,195,0.395044614715,0.72543228023,0.519210011433,0.355126527027,right,2,558,True,left,1,3,533,0,1
2,3NG53N1RLVJHXWQFBE4HG1QLXFO8P0,196,0.383792753181,0.712424710636,0.479336007569,0.387209370348,right,2,477,True,left,1,3,560,1,1
2,3NG53N1RLVJHXWQFBE4HG1QLXFO8P0,197,0.37306997392,0.734290462084,0.460441785745,0.375364189949,right,2,585,True,left,1,3,732,1,1
2,3NG53N1RLVJHXWQFBE4HG1QLXFO8P0,198,0.440370694377,0.747560565418,0.460608262771,0.410302321559,right,2,451,True,left,1,3,519,0,1
2,3NG53N1RLVJHXWQFBE4HG1QLXFO8P0,199,0.471404410712,0.7366478523,0.467873357418,0.375276531813,right,2,571,True,right,2,3,545,0,1
2,3NG53N1RLVJHXWQFBE4HG1QLXFO8P0,200,0.487117657235,0.736005509776,0.446751124312,0.402649308091,right,2,1076,True,left,1,3,483,0,1
3,354GIDR5ZB6WRQHSZPCC8LJV77400Z,1,0.742621470936,0.272532468277,0.71669309271,0.479056705494,left,1,1828,True,left,1,2,1480,1,1
3,354GIDR5ZB6WRQHSZPCC8LJV77400Z,2,0.714054437546,0.28956974681,0.711770360008,0.456458310278,left,1,694,True,left,1,2,1229,0,1
3,354GIDR5ZB6WRQHSZPCC8LJV77400Z,3,0.708947909512,0.346194423994,0.714402963935,0.46593679168,left,1,480,True,left,1,2,978,1,1
3,354GIDR5ZB6WRQHSZPCC8LJV77400Z,4,0.732490347346,0.339447868367,0.704013189795,0.385709276536,left,1,481,False,-1,2,3,2501,-1,1
3,354GIDR5ZB6WRQHSZPCC8LJV77400Z,5,0.717249489061,0.407606752597,0.721518196281,0.422206287292,left,1,891,True,right,2,2,881,1,1
3,354GIDR5ZB6WRQHSZPCC8LJV77400Z,6,0.6630928988,0.45511262148,0.721181153667,0.404565489562,left,1,1059,True,right,2,2,725,1,1
3,354GIDR5ZB6WRQHSZPCC8LJV77400Z,7,0.672738831011,0.474384545792,0.743141113631,0.381869747044,left,1,486,True,right,2,2,734,1,1
3,354GIDR5ZB6WRQHSZPCC8LJV77400Z,8,0.668045339679,0.480846588706,0.731564879728,0.405588632962,left,1,796,False,left,1,3,1035,1,1
3,354GIDR5ZB6WRQHSZPCC8LJV77400Z,9,0.669015262022,0.513473956177,0.728107518412,0.40687276212,left,1,536,False,right,2,3,1424,0,1
3,354GIDR5ZB6WRQHSZPCC8LJV77400Z,10,0.64671120204,0.526146178979,0.730336497662,0.408509497299,left,1,577,True,right,2,2,748,0,1
3,354GIDR5ZB6WRQHSZPCC8LJV77400Z,11,0.607944402512,0.543315429143,0.724719472529,0.381349699905,left,1,363,False,left,1,3,1053,1,1
3,354GIDR5ZB6WRQHSZPCC8LJV77400Z,12,0.623056850805,0.526648888826,0.697371744877,0.395908106836,left,1,313,False,right,2,3,1179,0,1
3,354GIDR5ZB6WRQHSZPCC8LJV77400Z,13,0.607721669601,0.554902084053,0.689983332344,0.380218517946,left,1,337,False,left,1,3,790,0,1
3,354GIDR5ZB6WRQHSZPCC8LJV77400Z,14,0.642416333717,0.576955978171,0.708708278957,0.341168637042,left,1,250,False,left,1,3,809,0,1
3,354GIDR5ZB6WRQHSZPCC8LJV77400Z,15,0.614010351756,0.604034382831,0.732507162725,0.350118401239,right,2,363,False,right,2,2,1048,1,1
3,354GIDR5ZB6WRQHSZPCC8LJV77400Z,16,0.680413307829,0.594441283734,0.716261232916,0.355798838571,right,2,755,False,right,2,2,688,1,1
3,354GIDR5ZB6WRQHSZPCC8LJV77400Z,17,0.67102435131,0.588086274504,0.730069464085,0.330877938548,right,2,341,True,left,1,3,1447,0,1
3,354GIDR5ZB6WRQHSZPCC8LJV77400Z,18,0.718432568922,0.568204732239,0.686176168762,0.309765161617,right,2,278,True,right,2,3,1160,1,1
3,354GIDR5ZB6WRQHSZPCC8LJV77400Z,19,0.713141823764,0.57865702431,0.696062430132,0.367234912443,right,2,320,False,right,2,2,562,1,1
3,354GIDR5ZB6WRQHSZPCC8LJV77400Z,20,0.707002308783,0.572723191735,0.701021460261,0.344983910079,right,2,286,True,right,2,3,728,1,1
3,354GIDR5ZB6WRQHSZPCC8LJV77400Z,21,0.697338532194,0.583247904064,0.713862580976,0.369623913462,right,2,355,True,right,2,3,611,1,1
3,354GIDR5ZB6WRQHSZPCC8LJV77400Z,22,0.683738606376,0.577831132902,0.720175638244,0.347221826515,right,2,281,True,right,2,3,730,0,1
3,354GIDR5ZB6WRQHSZPCC8LJV77400Z,23,0.723666933292,0.594247039033,0.678758987791,0.350429018148,right,2,324,True,right,2,3,540,1,1
3,354GIDR5ZB6WRQHSZPCC8LJV77400Z,24,0.722552862976,0.64363551746,0.657672810429,0.358987448701,right,2,310,True,right,2,3,806,1,1
3,354GIDR5ZB6WRQHSZPCC8LJV77400Z,25,0.729163712473,0.664465485514,0.659189229643,0.373726090068,right,2,388,True,right,2,3,727,1,1
3,354GIDR5ZB6WRQHSZPCC8LJV77400Z,26,0.736463051067,0.667677417009,0.633789239965,0.388062858383,right,2,296,True,right,2,3,481,1,1
3,354GIDR5ZB6WRQHSZPCC8LJV77400Z,27,0.743521712443,0.680410974005,0.603566014102,0.365819318125,right,2,349,True,right,2,3,649,0,1
3,354GIDR5ZB6WRQHSZPCC8LJV77400Z,28,0.732307752744,0.688129657145,0.639730342634,0.324473032481,right,2,294,False,right,2,2,661,1,1
3,354GIDR5ZB6WRQHSZPCC8LJV77400Z,29,0.736811669823,0.670863418611,0.612317833639,0.359797741125,right,2,296,True,right,2,3,511,0,1
3,354GIDR5ZB6WRQHSZPCC8LJV77400Z,30,0.743345059239,0.664878919109,0.616259626176,0.316896486661,right,2,331,True,left,1,3,582,1,1
3,354GIDR5ZB6WRQHSZPCC8LJV77400Z,31,0.746265616093,0.667204230628,0.57959946249,0.31335500672,right,2,369,True,left,1,3,337,0,1
3,354GIDR5ZB6WRQHSZPCC8LJV77400Z,32,0.723199980689,0.64267698388,0.581017754762,0.308527186817,right,2,292,True,left,1,3,302,0,1
3,354GIDR5ZB6WRQHSZPCC8LJV77400Z,33,0.694695825122,0.703101902478,0.568902198934,0.290605018323,left,1,295,True,right,2,2,1477,1,1
3,354GIDR5ZB6WRQHSZPCC8LJV77400Z,34,0.67334094861,0.696419411433,0.578031478635,0.309599444775,left,1,293,True,right,2,2,522,0,1
3,354GIDR5ZB6WRQHSZPCC8LJV77400Z,35,0.652335091449,0.70438345769,0.59605536339,0.279470956194,left,1,359,True,right,2,2,340,1,1
3,354GIDR5ZB6WRQHSZPCC8LJV77400Z,36,0.657451953133,0.683837920999,0.568078580687,0.27404823551,left,1,387,False,left,1,3,1990,1,1
3,354GIDR5ZB6WRQHSZPCC8LJV77400Z,37,0.675374672435,0.712212599172,0.561377542482,0.284355796866,left,1,282,True,right,2,2,646,1,1
3,354GIDR5ZB6WRQHSZPCC8LJV77400Z,38,0.671284094134,0.716259324014,0.566258884749,0.269938039503,left,1,334,False,left,1,3,963,1,1
3,354GIDR5ZB6WRQHSZPCC8LJV77400Z,39,0.654751036327,0.744322707512,0.618638427368,0.294912002446,left,1,264,True,right,2,2,505,1,1
3,354GIDR5ZB6WRQHSZPCC8LJV77400Z,40,0.660675754074,0.685611640794,0.605892201903,0.270200805787,left,1,451,False,right,2,3,677,0,1
3,354GIDR5ZB6WRQHSZPCC8LJV77400Z,41,0.697626230879,0.729448779435,0.608670557774,0.256991528728,left,1,415,True,right,2,2,747,1,1
3,354GIDR5ZB6WRQHSZPCC8LJV77400Z,42,0.726645073604,0.717332378805,0.603307527487,0.277574736158,left,1,296,True,right,2,2,472,1,1
3,354GIDR5ZB6WRQHSZPCC8LJV77400Z,43,0.710785605187,0.73572032618,0.603035835786,0.300463039776,left,1,337,False,left,1,3,1063,1,1
3,354GIDR5ZB6WRQHSZPCC8LJV77400Z,44,0.690886938659,0.740720643321,0.608800181298,0.305367115844,left,1,317,False,left,1,3,1104,0,1
3,354GIDR5ZB6WRQHSZPCC8LJV77400Z,45,0.682073026999,0.726886066092,0.597549552128,0.298118154697,left,1,247,True,right,2,2,554,0,1
3,354GIDR5ZB6WRQHSZPCC8LJV77400Z,46,0.692167085493,0.701363725585,0.639345636163,0.368054277054,left,1,352,True,left,1,2,787,1,1
3,354GIDR5ZB6WRQHSZPCC8LJV77400Z,47,0.726979525113,0.685298681928,0.665140217735,0.392550601145,left,1,314,True,left,1,2,621,1,1
3,354GIDR5ZB6WRQHSZPCC8LJV77400Z,48,0.734914379351,0.68153045423,0.667316355854,0.380373869228,left,1,328,True,left,1,2,615,0,1
3,354GIDR5ZB6WRQHSZPCC8LJV77400Z,49,0.714865063908,0.653994687644,0.672014216512,0.367354016553,left,1,348,True,left,1,2,376,0,1
3,354GIDR5ZB6WRQHSZPCC8LJV77400Z,50,0.713201331899,0.676140093398,0.674811303487,0.344411485936,right,2,314,True,left,1,3,1674,1,1
3,354GIDR5ZB6WRQHSZPCC8LJV77400Z,51,0.73310943824,0.669322372281,0.662652287375,0.29720573873,right,2,298,False,left,1,2,724,1,1
3,354GIDR5ZB6WRQHSZPCC8LJV77400Z,52,0.700235093867,0.701682886358,0.677069605794,0.332317401302,right,2,373,True,left,1,3,878,1,1
3,354GIDR5ZB6WRQHSZPCC8LJV77400Z,53,0.681608516568,0.679629779822,0.681276831864,0.288342858569,right,2,464,False,left,1,2,668,1,1
3,354GIDR5ZB6WRQHSZPCC8LJV77400Z,54,0.611253601709,0.660626826063,0.70952385264,0.330572173264,right,2,377,True,left,1,3,640,1,1
3,354GIDR5ZB6WRQHSZPCC8LJV77400Z,55,0.66703777187,0.672946186741,0.737926106414,0.317011361338,right,2,341,True,left,1,3,839,1,1
3,354GIDR5ZB6WRQHSZPCC8LJV77400Z,56,0.663328365422,0.668736431958,0.720239436976,0.329794236079,right,2,289,True,left,1,3,676,1,1
3,354GIDR5ZB6WRQHSZPCC8LJV77400Z,57,0.612291779763,0.64812962841,0.714275483314,0.285713898761,right,2,255,True,left,1,3,683,1,1
3,354GIDR5ZB6WRQHSZPCC8LJV77400Z,58,0.601996752534,0.690302803125,0.676016484568,0.271887355155,right,2,287,False,left,1,2,1077,1,1
3,354GIDR5ZB6WRQHSZPCC8LJV77400Z,59,0.613291721538,0.709488073072,0.661531678887,0.299130690859,right,2,344,True,left,1,3,748,0,1
3,354GIDR5ZB6WRQHSZPCC8LJV77400Z,60,0.576180172387,0.710892275986,0.652653677393,0.314466701606,right,2,344,True,left,1,3,820,1,1
3,354GIDR5ZB6WRQHSZPCC8LJV77400Z,61,0.55143212238,0.6853037472,0.679903912304,0.298421798989,right,2,319,True,left,1,3,569,1,1
3,354GIDR5ZB6WRQHSZPCC8LJV77400Z,62,0.552884156424,0.712766267125,0.703638809173,0.32433324524,right,2,373,False,left,1,2,453,0,1
3,354GIDR5ZB6WRQHSZPCC8LJV77400Z,63,0.523932583535,0.711521035133,0.679767370885,0.337888246509,right,2,280,True,left,1,3,414,1,1
3,354GIDR5ZB6WRQHSZPCC8LJV77400Z,64,0.463568418654,0.711676676089,0.654057416911,0.301245991201,right,2,296,True,left,1,3,612,0,1
3,354GIDR5ZB6WRQHSZPCC8LJV77400Z,65,0.512684775876,0.72135123212,0.608900413955,0.307315993953,right,2,277,True,left,1,3,557,0,1
3,354GIDR5ZB6WRQHSZPCC8LJV77400Z,66,0.4789698412,0.699848934728,0.614568831315,0.250436393356,right,2,306,True,right,2,3,772,0,1
3,354GIDR5ZB6WRQHSZPCC8LJV77400Z,67,0.4762029504,0.694385754211,0.632767436931,0.284111851193,right,2,275,False,right,2,2,314,1,1
3,354GIDR5ZB6WRQHSZPCC8LJV77400Z,68,0.507081830395,0.677726367322,0.626004736862,0.317292542624,right,2,306,True,right,2,3,1072,0,1
3,354GIDR5ZB6WRQHSZPCC8LJV77400Z,69,0.530878795539,0.655313569542,0.603059838512,0.35399122944,left,1,286,True,right,2,2,826,1,1
3,354GIDR5ZB6WRQHSZPCC8LJV77400Z,70,0.515056866669,0.621614881021,0.58701353054,0.316633763971,left,1,456,True,right,2,2,545,1,1
3,354GIDR5ZB6WRQHSZPCC8LJV77400Z,71,0.564088952011,0.605891511566,0.597831961545,0.302344162838,left,1,593,True,right,2,2,503,1,1
3,354GIDR5ZB6WRQHSZPCC8LJV77400Z,72,0.54449084523,0.577146163723,0.59199090907,0.331577263471,left,1,368,True,right,2,2,448,0,1
3,354GIDR5ZB6WRQHSZPCC8LJV77400Z,73,0.566979079908,0.605338027274,0.564635273227,0.330100786862,left,1,324,False,right,2,3,974,0,1
3,354GIDR5ZB6WRQHSZPCC8LJV77400Z,74,0.551299433382,0.607923806021,0.548505305566,0.309216084463,left,1,240,False,right,2,3,801,0,1
3,354GIDR5ZB6WRQHSZPCC8LJV77400Z,75,0.542745978,0.589975468932,0.538285961481,0.334258316899,left,1,263,True,right,2,2,1186,0,1
3,354GIDR5ZB6WRQHSZPCC8LJV77400Z,76,0.561497649091,0.630898581991,0.556776422344,0.331123452327,left,1,354,False,left,1,3,384,0,1
3,354GIDR5ZB6WRQHSZPCC8LJV77400Z,77,0.589017199812,0.627952603444,0.550030110147,0.346628080055,left,1,270,True,left,1,2,797,0,1
3,354GIDR5ZB6WRQHSZPCC8LJV77400Z,78,0.584186560288,0.579581394278,0.557708870011,0.372955434066,right,2,464,False,right,2,2,1182,1,1
3,354GIDR5ZB6WRQHSZPCC8LJV77400Z,79,0.663978965977,0.603348757443,0.596450133085,0.335534554466,right,2,260,True,right,2,3,1487,0,1
3,354GIDR5ZB6WRQHSZPCC8LJV77400Z,80,0.685488538842,0.661324828013,0.628562826405,0.317508487146,right,2,301,False,right,2,2,1013,0,1
3,354GIDR5ZB6WRQHSZPCC8LJV77400Z,81,0.689540608913,0.642447759192,0.639191253292,0.280146174731,right,2,276,False,right,2,2,565,1,1
3,354GIDR5ZB6WRQHSZPCC8LJV77400Z,82,0.710426203535,0.655563840418,0.647453282745,0.260992840152,right,2,378,False,right,2,2,820,1,1
3,354GIDR5ZB6WRQHSZPCC8LJV77400Z,83,0.69084005601,0.626748569246,0.618006356653,0.265458837477,right,2,486,True,left,1,3,1169,1,1
3,354GIDR5ZB6WRQHSZPCC8LJV77400Z,84,0.66045000665,0.589118902235,0.582373787352,0.266296660997,right,2,360,True,left,1,3,545,1,1
3,354GIDR5ZB6WRQHSZPCC8LJV77400Z,85,0.692987016621,0.603946174416,0.594937517543,0.304179889849,right,2,513,True,left,1,3,665,0,1
3,354GIDR5ZB6WRQHSZPCC8LJV77400Z,86,0.742301951068,0.638028136197,0.598561432857,0.339665013074,right,2,310,True,left,1,3,708,1,1
3,354GIDR5ZB6WRQHSZPCC8LJV77400Z,87,0.686698795879,0.686641888378,0.563299184018,0.332946702685,right,2,259,True,left,1,3,509,1,1
3,354GIDR5ZB6WRQHSZPCC8LJV77400Z,88,0.690926289258,0.664793565833,0.567644663702,0.350846869979,right,2,308,False,left,1,2,952,1,1
3,354GIDR5ZB6WRQHSZPCC8LJV77400Z,89,0.639906407079,0.672512670635,0.552287929984,0.382400271729,right,2,270,True,left,1,3,355,1,1
3,354GIDR5ZB6WRQHSZPCC8LJV77400Z,90,0.599526089753,0.702037914288,0.551499978304,0.385810615866,right,2,291,False,left,1,2,880,0,1
3,354GIDR5ZB6WRQHSZPCC8LJV77400Z,91,0.571792989341,0.691019576673,0.521950006971,0.435034807193,right,2,247,True,left,1,3,491,0,1
3,354GIDR5ZB6WRQHSZPCC8LJV77400Z,92,0.584683137779,0.706512645771,0.51122706761,0.445767985761,right,2,250,False,left,1,2,363,0,1
3,354GIDR5ZB6WRQHSZPCC8LJV77400Z,93,0.554861172246,0.711737596545,0.492981519726,0.440683358106,right,2,269,True,left,1,3,773,0,1
3,354GIDR5ZB6WRQHSZPCC8LJV77400Z,94,0.56691541983,0.724832553503,0.484850092769,0.421860460474,left,1,1599,False,right,2,3,1151,1,1
3,354GIDR5ZB6WRQHSZPCC8LJV77400Z,95,0.566678637331,0.720026008902,0.464133901312,0.41295891552,left,1,620,False,right,2,3,585,1,1
3,354GIDR5ZB6WRQHSZPCC8LJV77400Z,96,0.526879516376,0.731858231709,0.476966682047,0.397678154404,left,1,425,True,right,2,2,1482,1,1
3,354GIDR5ZB6WRQHSZPCC8LJV77400Z,97,0.495215171763,0.724235293032,0.515579848533,0.441247188452,left,1,496,True,right,2,2,610,1,1
3,354GIDR5ZB6WRQHSZPCC8LJV77400Z,98,0.451702131943,0.722808342847,0.534160534675,0.393018126972,left,1,324,True,right,2,2,596,1,1
3,354GIDR5ZB6WRQHSZPCC8LJV77400Z,99,0.472061866997,0.665813203964,0.484894662984,0.383038572744,left,1,385,True,right,2,2,469,1,1
3,354GIDR5ZB6WRQHSZPCC8LJV77400Z,100,0.44047725176,0.677258434574,0.482475294507,0.368141735434,left,1,321,False,left,1,3,552,0,1
3,354GIDR5ZB6WRQHSZPCC8LJV77400Z,101,0.465939039681,0.675360161858,0.477210773749,0.392195785011,left,1,382,True,right,2,2,614,0,1
3,354GIDR5ZB6WRQHSZPCC8LJV77400Z,102,0.484780332161,0.725432311224,0.488300642483,0.393341274419,left,1,335,True,right,2,2,561,1,1
3,354GIDR5ZB6WRQHSZPCC8LJV77400Z,103,0.483232027022,0.713118198543,0.510764901989,0.382117662374,left,1,344,True,right,2,2,463,1,1
3,354GIDR5ZB6WRQHSZPCC8LJV77400Z,104,0.487664781079,0.746520841043,0.488735788724,0.354687213322,left,1,355,True,right,2,2,431,1,1
3,354GIDR5ZB6WRQHSZPCC8LJV77400Z,105,0.466196046634,0.738623462929,0.484563566009,0.359013680846,left,1,308,True,right,2,2,336,1,1
3,354GIDR5ZB6WRQHSZPCC8LJV77400Z,106,0.442305640081,0.735684662005,0.457603870736,0.422503378505,left,1,435,True,right,2,2,413,0,1
3,354GIDR5ZB6WRQHSZPCC8LJV77400Z,107,0.431291039251,0.737970405597,0.474213679147,0.440406871436,left,1,493,True,right,2,2,589,0,1
3,354GIDR5ZB6WRQHSZPCC8LJV77400Z,108,0.411758552591,0.726683838125,0.424416267289,0.437138352581,left,1,312,True,left,1,2,597,0,1
3,354GIDR5ZB6WRQHSZPCC8LJV77400Z,109,0.426170150128,0.716216452261,0.437737338122,0.394549101032,left,1,322,True,left,1,2,250,0,1
3,354GIDR5ZB6WRQHSZPCC8LJV77400Z,110,0.459510607636,0.734927828656,0.409597477729,0.408865363166,right,2,286,True,right,2,3,659,0,1
3,354GIDR5ZB6WRQHSZPCC8LJV77400Z,111,0.427067584609,0.687396330944,0.422055811318,0.420048706351,right,2,265,False,right,2,2,302,1,1
3,354GIDR5ZB6WRQHSZPCC8LJV77400Z,112,0.396708940978,0.671869621097,0.433717704758,0.409536015214,right,2,261,True,right,2,3,414,1,1
3,354GIDR5ZB6WRQHSZPCC8LJV77400Z,113,0.392163878606,0.674074699172,0.421056076456,0.417970716472,right,2,300,True,right,2,3,313,1,1
3,354GIDR5ZB6WRQHSZPCC8LJV77400Z,114,0.405190010723,0.621025368561,0.435236166576,0.408741840632,right,2,489,True,right,2,3,587,0,1
3,354GIDR5ZB6WRQHSZPCC8LJV77400Z,115,0.438900538552,0.653627324378,0.436495632727,0.413355976541,right,2,269,True,right,2,3,315,1,1
3,354GIDR5ZB6WRQHSZPCC8LJV77400Z,116,0.466364070331,0.639706334825,0.420982311789,0.37690224461,right,2,261,True,right,2,3,273,0,1
3,354GIDR5ZB6WRQHSZPCC8LJV77400Z,117,0.44593666449,0.664991972369,0.444372392431,0.369366843978,right,2,293,True,right,2,3,529,0,1
3,354GIDR5ZB6WRQHSZPCC8LJV77400Z,118,0.412733194721,0.661210229012,0.483239814095,0.329894679932,right,2,256,True,left,1,3,360,0,1
3,354GIDR5ZB6WRQHSZPCC8LJV77400Z,119,0.431345823754,0.653591919012,0.468808732687,0.333441714697,right,2,249,True,left,1,3,262,1,1
3,354GIDR5ZB6WRQHSZPCC8LJV77400Z,120,0.447208271084,0.62713216337,0.475007496911,0.32802780441,right,2,262,True,left,1,3,362,0,1
3,354GIDR5ZB6WRQHSZPCC8LJV77400Z,121,0.504181576761,0.598908450997,0.515211526458,0.320161421711,right,2,303,True,left,1,3,37,0,1
3,354GIDR5ZB6WRQHSZPCC8LJV77400Z,122,0.538685689494,0.59872734267,0.581245967994,0.326761785411,left,1,350,True,right,2,2,534,0,1
3,354GIDR5ZB6WRQHSZPCC8LJV77400Z,123,0.545842916492,0.565631827948,0.572375519669,0.349220564181,left,1,289,True,right,2,2,186,1,1
3,354GIDR5ZB6WRQHSZPCC8LJV77400Z,124,0.534424600245,0.575336677774,0.589370511578,0.317026148602,left,1,270,True,right,2,2,447,1,1
3,354GIDR5ZB6WRQHSZPCC8LJV77400Z,125,0.526371932117,0.577041141149,0.5830435132,0.304210055249,left,1,246,True,right,2,2,442,0,1
3,354GIDR5ZB6WRQHSZPCC8LJV77400Z,126,0.49512953076,0.52563292561,0.545587063314,0.312630586025,left,1,287,False,right,2,3,421,0,1
3,354GIDR5ZB6WRQHSZPCC8LJV77400Z,127,0.530068526255,0.510034012006,0.577867996947,0.29247870187,left,1,271,True,right,2,2,620,1,1
3,354GIDR5ZB6WRQHSZPCC8LJV77400Z,128,0.521176469857,0.476556608777,0.587986796524,0.287512284603,left,1,353,False,left,1,3,833,0,1
3,354GIDR5ZB6WRQHSZPCC8LJV77400Z,129,0.517407173469,0.451511907077,0.63486949102,0.272527687021,left,1,138,False,left,1,3,836,0,1
3,354GIDR5ZB6WRQHSZPCC8LJV77400Z,130,0.519013950795,0.441926101218,0.638098815725,0.259425093522,left,1,276,False,right,2,3,716,0,1
3,354GIDR5ZB6WRQHSZPCC8LJV77400Z,131,0.498890596703,0.467441570089,0.653874797874,0.255058599684,left,1,412,False,right,2,3,673,0,1
3,354GIDR5ZB6WRQHSZPCC8LJV77400Z,132,0.506975099993,0.5138196349,0.723727134143,0.289296114384,right,2,267,False,left,1,2,2142,0,1
3,354GIDR5ZB6WRQHSZPCC8LJV77400Z,133,0.478373189761,0.515418585011,0.739344280162,0.319696009516,right,2,300,False,left,1,2,254,1,1
3,354GIDR5ZB6WRQHSZPCC8LJV77400Z,134,0.464117630012,0.505406846973,0.710796212728,0.358548929167,right,2,250,False,left,1,2,244,0,1
3,354GIDR5ZB6WRQHSZPCC8LJV77400Z,135,0.438161564291,0.512963083972,0.663310280412,0.414164557033,right,2,231,True,left,1,3,178,0,1
3,354GIDR5ZB6WRQHSZPCC8LJV77400Z,136,0.437804854271,0.521267445542,0.707140312177,0.381977117266,right,2,254,True,left,1,3,299,1,1
3,354GIDR5ZB6WRQHSZPCC8LJV77400Z,137,0.39550576703,0.530734677637,0.722301577653,0.386129965171,right,2,272,True,left,1,3,508,1,1
3,354GIDR5ZB6WRQHSZPCC8LJV77400Z,138,0.369825946503,0.529297444232,0.705073970166,0.412192170598,right,2,364,False,left,1,2,1145,0,1
3,354GIDR5ZB6WRQHSZPCC8LJV77400Z,139,0.340955933434,0.535677091359,0.676049799996,0.397064309229,left,1,246,True,left,1,2,294,0,1
3,354GIDR5ZB6WRQHSZPCC8LJV77400Z,140,0.327841930378,0.494485627413,0.67379787808,0.385319942822,left,1,266,True,left,1,2,747,0,1
3,354GIDR5ZB6WRQHSZPCC8LJV77400Z,141,0.346949999261,0.50276959175,0.631642167891,0.352071439617,left,1,384,True,left,1,2,631,1,1
3,354GIDR5ZB6WRQHSZPCC8LJV77400Z,142,0.327683547083,0.479498572317,0.588172558354,0.338016967094,left,1,305,False,left,1,3,669,0,1
3,354GIDR5ZB6WRQHSZPCC8LJV77400Z,143,0.345778721519,0.463422938754,0.621093596977,0.356575357295,left,1,105,True,left,1,2,348,1,1
3,354GIDR5ZB6WRQHSZPCC8LJV77400Z,144,0.364945822642,0.467786950715,0.638775660409,0.387799137668,left,1,274,True,left,1,2,677,0,1
3,354GIDR5ZB6WRQHSZPCC8LJV77400Z,145,0.366856198242,0.479262099846,0.638164830174,0.392213022096,left,1,653,True,left,1,2,399,1,1
3,354GIDR5ZB6WRQHSZPCC8LJV77400Z,146,0.353443186556,0.456792617563,0.592292922404,0.419555911538,left,1,519,True,left,1,2,466,0,1
3,354GIDR5ZB6WRQHSZPCC8LJV77400Z,147,0.301722088337,0.45830036555,0.622835797891,0.375761582739,left,1,284,False,left,1,3,73,1,1
3,354GIDR5ZB6WRQHSZPCC8LJV77400Z,148,0.264341556455,0.449775355421,0.662131127511,0.349120033327,left,1,673,True,left,1,2,584,0,1
3,354GIDR5ZB6WRQHSZPCC8LJV77400Z,149,0.264668248755,0.494929555671,0.639769434173,0.358401192005,right,2,290,False,left,1,2,987,1,1
3,354GIDR5ZB6WRQHSZPCC8LJV77400Z,150,0.30110562558,0.464280328832,0.609903853688,0.377339726515,right,2,260,True,left,1,3,523,1,1
3,354GIDR5ZB6WRQHSZPCC8LJV77400Z,151,0.280623215878,0.481986230299,0.626281431716,0.383460733712,right,2,249,False,left,1,2,291,1,1
3,354GIDR5ZB6WRQHSZPCC8LJV77400Z,152,0.304683770407,0.502435718544,0.643640302365,0.391815879345,right,2,215,True,left,1,3,251,0,1
3,354GIDR5ZB6WRQHSZPCC8LJV77400Z,153,0.283322642867,0.498139442605,0.642128054045,0.352140031719,right,2,61,True,left,1,3,232,0,1
3,354GIDR5ZB6WRQHSZPCC8LJV77400Z,154,0.306269030949,0.451614361835,0.654672308956,0.348380129875,right,2,290,True,right,2,3,271,1,1
3,354GIDR5ZB6WRQHSZPCC8LJV77400Z,155,0.308778603441,0.402575938955,0.656372423923,0.342612192118,right,2,247,True,right,2,3,200,1,1
3,354GIDR5ZB6WRQHSZPCC8LJV77400Z,156,0.33451263543,0.446579202849,0.658542188835,0.357265872674,right,2,612,True,right,2,3,305,1,1
3,354GIDR5ZB6WRQHSZPCC8LJV77400Z,157,0.297271386897,0.430236977273,0.63540553159,0.375693693187,right,2,278,True,right,2,3,329,0,1
3,354GIDR5ZB6WRQHSZPCC8LJV77400Z,158,0.28858538497,0.452657205597,0.623941677319,0.338900571893,right,2,280,True,right,2,3,276,1,1
3,354GIDR5ZB6WRQHSZPCC8LJV77400Z,159,0.25563944793,0.465453983137,0.603769339648,0.360800282578,right,2,301,False,right,2,2,260,1,1
3,354GIDR5ZB6WRQHSZPCC8LJV77400Z,160,0.26148909479,0.460071212732,0.606546526811,0.307855002198,right,2,261,False,right,2,2,513,0,1
3,354GIDR5ZB6WRQHSZPCC8LJV77400Z,161,0.274099036929,0.459478985881,0.637334141907,0.33532419807,right,2,243,True,right,2,3,361,1,1
3,354GIDR5ZB6WRQHSZPCC8LJV77400Z,162,0.307966452014,0.46872058764,0.637873391684,0.34623859314,right,2,274,False,right,2,2,296,1,1
3,354GIDR5ZB6WRQHSZPCC8LJV77400Z,163,0.270379620162,0.466356103946,0.646717215096,0.393464062872,right,2,128,False,right,2,2,191,0,1
3,354GIDR5ZB6WRQHSZPCC8LJV77400Z,164,0.251737674833,0.479336880963,0.619903246132,0.413261205596,right,2,390,True,right,2,3,488,0,1
