participant,subject_id,trial_num,drift_1,drift_2,drift_3,drift_4,stage_1_response,stage_1_selected_stimulus,stage_1_rt,transition,stage_2_response,stage_2_selected_stimulus,stage_2_state,stage_2_rt,reward,redundant
0,36PW28KO4ZWRJTU4ZY8KIGXCAUQEAQ,1,0.742621470936,0.272532468277,0.71669309271,0.479056705494,left,1,1295,True,left,1,2,689,1,1
0,36PW28KO4ZWRJTU4ZY8KIGXCAUQEAQ,2,0.714054437546,0.28956974681,0.711770360008,0.456458310278,left,1,442,True,left,1,2,761,1,1
0,36PW28KO4ZWRJTU4ZY8KIGXCAUQEAQ,3,0.708947909512,0.346194423994,0.714402963935,0.46593679168,left,1,307,True,left,1,2,362,1,1
0,36PW28KO4ZWRJTU4ZY8KIGXCAUQEAQ,4,0.732490347346,0.339447868367,0.704013189795,0.385709276536,left,1,322,False,right,2,3,781,0,1
0,36PW28KO4ZWRJTU4ZY8KIGXCAUQEAQ,5,0.717249489061,0.407606752597,0.721518196281,0.422206287292,left,1,285,False,left,1,3,494,1,1
0,36PW28KO4ZWRJTU4ZY8KIGXCAUQEAQ,6,0.6630928988,0.45511262148,0.721181153667,0.404565489562,left,1,379,False,left,1,3,349,1,1
0,36PW28KO4ZWRJTU4ZY8KIGXCAUQEAQ,7,0.672738831011,0.474384545792,0.743141113631,0.381869747044,left,1,291,True,left,1,2,505,1,1
0,36PW28KO4ZWRJTU4ZY8KIGXCAUQEAQ,8,0.668045339679,0.480846588706,0.731564879728,0.405588632962,left,1,349,False,left,1,3,329,1,1
0,36PW28KO4ZWRJTU4ZY8KIGXCAUQEAQ,9,0.669015262022,0.513473956177,0.728107518412,0.40687276212,left,1,448,True,left,1,2,405,1,1
0,36PW28KO4ZWRJTU4ZY8KIGXCAUQEAQ,10,0.64671120204,0.526146178979,0.730336497662,0.408509497299,left,1,366,False,left,1,3,451,1,1
0,36PW28KO4ZWRJTU4ZY8KIGXCAUQEAQ,11,0.607944402512,0.543315429143,0.724719472529,0.381349699905,left,1,295,True,left,1,2,410,1,1
0,36PW28KO4ZWRJTU4ZY8KIGXCAUQEAQ,12,0.623056850805,0.526648888826,0.697371744877,0.395908106836,left,1,308,True,left,1,2,408,1,1
0,36PW28KO4ZWRJTU4ZY8KIGXCAUQEAQ,13,0.607721669601,0.554902084053,0.689983332344,0.380218517946,left,1,567,True,left,1,2,433,1,1
0,36PW28KO4ZWRJTU4ZY8KIGXCAUQEAQ,14,0.642416333717,0.576955978171,0.708708278957,0.341168637042,left,1,299,True,left,1,2,460,1,1
0,36PW28KO4ZWRJTU4ZY8KIGXCAUQEAQ,15,0.614010351756,0.604034382831,0.732507162725,0.350118401239,left,1,325,True,left,1,2,420,0,1
0,36PW28KO4ZWRJTU4ZY8KIGXCAUQEAQ,16,0.680413307829,0.594441283734,0.716261232916,0.355798838571,left,1,334,False,left,1,3,366,0,1
0,36PW28KO4ZWRJTU4ZY8KIGXCAUQEAQ,17,0.67102435131,0.588086274504,0.730069464085,0.330877938548,left,1,305,True,right,2,2,433,1,1
0,36PW28KO4ZWRJTU4ZY8KIGXCAUQEAQ,18,0.718432568922,0.568204732239,0.686176168762,0.309765161617,left,1,331,False,right,2,3,342,0,1
0,36PW28KO4ZWRJTU4ZY8KIGXCAUQEAQ,19,0.713141823764,0.57865702431,0.696062430132,0.367234912443,left,1,275,True,right,2,2,434,1,1
0,36PW28KO4ZWRJTU4ZY8KIGXCAUQEAQ,20,0.707002308783,0.572723191735,0.701021460261,0.344983910079,left,1,386,False,left,1,3,391,1,1
0,36PW28KO4ZWRJTU4ZY8KIGXCAUQEAQ,21,0.697338532194,0.583247904064,0.713862580976,0.369623913462,left,1,477,True,right,2,2,437,0,1
0,36PW28KO4ZWRJTU4ZY8KIGXCAUQEAQ,22,0.683738606376,0.577831132902,0.720175638244,0.347221826515,left,1,429,True,right,2,2,414,1,1
0,36PW28KO4ZWRJTU4ZY8KIGXCAUQEAQ,23,0.723666933292,0.594247039033,0.678758987791,0.350429018148,left,1,341,False,left,1,3,554,1,1
0,36PW28KO4ZWRJTU4ZY8KIGXCAUQEAQ,24,0.722552862976,0.64363551746,0.657672810429,0.358987448701,left,1,351,False,right,2,3,422,0,1
0,36PW28KO4ZWRJTU4ZY8KIGXCAUQEAQ,25,0.729163712473,0.664465485514,0.659189229643,0.373726090068,left,1,292,False,left,1,3,515,0,1
0,36PW28KO4ZWRJTU4ZY8KIGXCAUQEAQ,26,0.736463051067,0.667677417009,0.633789239965,0.388062858383,left,1,305,True,right,2,2,355,1,1
0,36PW28KO4ZWRJTU4ZY8KIGXCAUQEAQ,27,0.743521712443,0.680410974005,0.603566014102,0.365819318125,left,1,310,True,right,2,2,485,1,1
0,36PW28KO4ZWRJTU4ZY8KIGXCAUQEAQ,28,0.732307752744,0.688129657145,0.639730342634,0.324473032481,left,1,300,True,right,2,2,430,1,1
0,36PW28KO4ZWRJTU4ZY8KIGXCAUQEAQ,29,0.736811669823,0.670863418611,0.612317833639,0.359797741125,left,1,308,True,right,2,2,447,1,1
0,36PW28KO4ZWRJTU4ZY8KIGXCAUQEAQ,30,0.743345059239,0.664878919109,0.616259626176,0.316896486661,left,1,320,True,right,2,2,425,1,1
0,36PW28KO4ZWRJTU4ZY8KIGXCAUQEAQ,31,0.746265616093,0.667204230628,0.57959946249,0.31335500672,left,1,403,True,right,2,2,409,1,1
0,36PW28KO4ZWRJTU4ZY8KIGXCAUQEAQ,32,0.723199980689,0.64267698388,0.581017754762,0.308527186817,left,1,410,True,right,2,2,375,1,1
0,36PW28KO4ZWRJTU4ZY8KIGXCAUQEAQ,33,0.694695825122,0.703101902478,0.568902198934,0.290605018323,left,1,283,True,right,2,2,329,0,1
0,36PW28KO4ZWRJTU4ZY8KIGXCAUQEAQ,34,0.67334094861,0.696419411433,0.578031478635,0.309599444775,left,1,264,False,left,1,3,854,1,1
0,36PW28KO4ZWRJTU4ZY8KIGXCAUQEAQ,35,0.652335091449,0.70438345769,0.59605536339,0.279470956194,left,1,457,False,left,1,3,405,1,1
0,36PW28KO4ZWRJTU4ZY8KIGXCAUQEAQ,36,0.657451953133,0.683837920999,0.568078580687,0.27404823551,left,1,305,True,left,1,2,348,1,1
0,36PW28KO4ZWRJTU4ZY8KIGXCAUQEAQ,37,0.675374672435,0.712212599172,0.561377542482,0.284355796866,left,1,413,True,left,1,2,415,0,1
0,36PW28KO4ZWRJTU4ZY8KIGXCAUQEAQ,38,0.671284094134,0.716259324014,0.566258884749,0.269938039503,left,1,314,True,right,2,2,429,1,1
0,36PW28KO4ZWRJTU4ZY8KIGXCAUQEAQ,39,0.654751036327,0.744322707512,0.618638427368,0.294912002446,left,1,332,True,right,2,2,375,0,1
0,36PW28KO4ZWRJTU4ZY8KIGXCAUQEAQ,40,0.660675754074,0.685611640794,0.605892201903,0.270200805787,left,1,298,True,right,2,2,455,1,1
0,36PW28KO4ZWRJTU4ZY8KIGXCAUQEAQ,41,0.697626230879,0.729448779435,0.608670557774,0.256991528728,left,1,411,True,right,2,2,428,1,1
0,36PW28KO4ZWRJTU4ZY8KIGXCAUQEAQ,42,0.726645073604,0.717332378805,0.603307527487,0.277574736158,left,1,352,False,left,1,3,624,0,1
0,36PW28KO4ZWRJTU4ZY8KIGXCAUQEAQ,43,0.710785605187,0.73572032618,0.603035835786,0.300463039776,left,1,327,True,right,2,2,362,1,1
0,36PW28KO4ZWRJTU4ZY8KIGXCAUQEAQ,44,0.690886938659,0.740720643321,0.608800181298,0.305367115844,left,1,323,True,right,2,2,424,0,1
0,36PW28KO4ZWRJTU4ZY8KIGXCAUQEAQ,45,0.682073026999,0.726886066092,0.597549552128,0.298118154697,left,1,363,True,right,2,2,413,1,1
0,36PW28KO4ZWRJTU4ZY8KIGXCAUQEAQ,46,0.692167085493,0.701363725585,0.639345636163,0.368054277054,left,1,356,True,right,2,2,413,0,1
0,36PW28KO4ZWRJTU4ZY8KIGXCAUQEAQ,47,0.726979525113,0.685298681928,0.665140217735,0.392550601145,right,2,327,True,right,2,3,410,0,1
0,36PW28KO4ZWRJTU4ZY8KIGXCAUQEAQ,48,0.734914379351,0.68153045423,0.667316355854,0.380373869228,right,2,284,True,left,1,3,297,1,1
0,36PW28KO4ZWRJTU4ZY8KIGXCAUQEAQ,49,0.714865063908,0.653994687644,0.672014216512,0.367354016553,right,2,327,True,left,1,3,321,1,1
0,36PW28KO4ZWRJTU4ZY8KIGXCAUQEAQ,50,0.713201331899,0.676140093398,0.674811303487,0.344411485936,right,2,328,True,left,1,3,283,1,1
0,36PW28KO4ZWRJTU4ZY8KIGXCAUQEAQ,51,0.73310943824,0.669322372281,0.662652287375,0.29720573873,right,2,336,True,left,1,3,265,1,1
0,36PW28KO4ZWRJTU4ZY8KIGXCAUQEAQ,52,0.700235093867,0.701682886358,0.677069605794,0.332317401302,right,2,413,True,left,1,3,300,1,1
0,36PW28KO4ZWRJTU4ZY8KIGXCAUQEAQ,53,0.681608516568,0.679629779822,0.681276831864,0.288342858569,right,2,351,True,left,1,3,292,1,1
0,36PW28KO4ZWRJTU4ZY8KIGXCAUQEAQ,54,0.611253601709,0.660626826063,0.70952385264,0.330572173264,right,2,368,True,left,1,3,327,1,1
0,36PW28KO4ZWRJTU4ZY8KIGXCAUQEAQ,55,0.66703777187,0.672946186741,0.737926106414,0.317011361338,right,2,294,True,left,1,3,316,1,1
0,36PW28KO4ZWRJTU4ZY8KIGXCAUQEAQ,56,0.663328365422,0.668736431958,0.720239436976,0.329794236079,right,2,325,True,left,1,3,324,1,1
0,36PW28KO4ZWRJTU4ZY8KIGXCAUQEAQ,57,0.612291779763,0.64812962841,0.714275483314,0.285713898761,right,2,281,False,left,1,2,793,0,1
0,36PW28KO4ZWRJTU4ZY8KIGXCAUQEAQ,58,0.601996752534,0.690302803125,0.676016484568,0.271887355155,right,2,378,True,left,1,3,602,0,1
0,36PW28KO4ZWRJTU4ZY8KIGXCAUQEAQ,59,0.613291721538,0.709488073072,0.661531678887,0.299130690859,right,2,295,False,right,2,2,496,1,1
0,36PW28KO4ZWRJTU4ZY8KIGXCAUQEAQ,60,0.576180172387,0.710892275986,0.652653677393,0.314466701606,right,2,292,True,right,2,3,456,0,1
0,36PW28KO4ZWRJTU4ZY8KIGXCAUQEAQ,61,0.55143212238,0.6853037472,0.679903912304,0.298421798989,left,1,389,True,right,2,2,385,1,1
0,36PW28KO4ZWRJTU4ZY8KIGXCAUQEAQ,62,0.552884156424,0.712766267125,0.703638809173,0.32433324524,left,1,370,True,right,2,2,400,0,1
0,36PW28KO4ZWRJTU4ZY8KIGXCAUQEAQ,63,0.523932583535,0.711521035133,0.679767370885,0.337888246509,left,1,250,True,right,2,2,428,1,1
0,36PW28KO4ZWRJTU4ZY8KIGXCAUQEAQ,64,0.463568418654,0.711676676089,0.654057416911,0.301245991201,left,1,281,True,right,2,2,287,0,1
0,36PW28KO4ZWRJTU4ZY8KIGXCAUQEAQ,65,0.512684775876,0.72135123212,0.608900413955,0.307315993953,left,1,341,False,left,1,3,146,0,1
0,36PW28KO4ZWRJTU4ZY8KIGXCAUQEAQ,66,0.4789698412,0.699848934728,0.614568831315,0.250436393356,left,1,289,True,left,1,2,266,0,1
0,36PW28KO4ZWRJTU4ZY8KIGXCAUQEAQ,67,0.4762029504,0.694385754211,0.632767436931,0.284111851193,right,2,238,True,left,1,3,304,1,1
0,36PW28KO4ZWRJTU4ZY8KIGXCAUQEAQ,68,0.507081830395,0.677726367322,0.626004736862,0.317292542624,right,2,340,True,left,1,3,292,1,1
0,36PW28KO4ZWRJTU4ZY8KIGXCAUQEAQ,69,0.530878795539,0.655313569542,0.603059838512,0.35399122944,right,2,323,True,left,1,3,348,0,1
0,36PW28KO4ZWRJTU4ZY8KIGXCAUQEAQ,70,0.515056866669,0.621614881021,0.58701353054,0.316633763971,right,2,304,True,left,1,3,302,1,1
0,36PW28KO4ZWRJTU4ZY8KIGXCAUQEAQ,71,0.564088952011,0.605891511566,0.597831961545,0.302344162838,right,2,256,True,left,1,3,263,1,1
0,36PW28KO4ZWRJTU4ZY8KIGXCAUQEAQ,72,0.54449084523,0.577146163723,0.59199090907,0.331577263471,right,2,293,True,left,1,3,378,0,1
0,36PW28KO4ZWRJTU4ZY8KIGXCAUQEAQ,73,0.566979079908,0.605338027274,0.564635273227,0.330100786862,left,1,271,True,right,2,2,249,1,1
0,36PW28KO4ZWRJTU4ZY8KIGXCAUQEAQ,74,0.551299433382,0.607923806021,0.548505305566,0.309216084463,left,1,411,True,right,2,2,302,1,1
0,36PW28KO4ZWRJTU4ZY8KIGXCAUQEAQ,75,0.542745978,0.589975468932,0.538285961481,0.334258316899,left,1,403,False,right,2,3,307,0,1
0,36PW28KO4ZWRJTU4ZY8KIGXCAUQEAQ,76,0.561497649091,0.630898581991,0.556776422344,0.331123452327,left,1,310,False,right,2,3,344,0,1
0,36PW28KO4ZWRJTU4ZY8KIGXCAUQEAQ,77,0.589017199812,0.627952603444,0.550030110147,0.346628080055,left,1,306,True,right,2,2,414,1,1
0,36PW28KO4ZWRJTU4ZY8KIGXCAUQEAQ,78,0.584186560288,0.579581394278,0.557708870011,0.372955434066,left,1,282,True,right,2,2,854,1,1
0,36PW28KO4ZWRJTU4ZY8KIGXCAUQEAQ,79,0.663978965977,0.603348757443,0.596450133085,0.335534554466,left,1,295,False,left,1,3,698,0,1
0,36PW28KO4ZWRJTU4ZY8KIGXCAUQEAQ,80,0.685488538842,0.661324828013,0.628562826405,0.317508487146,left,1,295,True,right,2,2,406,0,1
0,36PW28KO4ZWRJTU4ZY8KIGXCAUQEAQ,81,0.689540608913,0.642447759192,0.639191253292,0.280146174731,left,1,403,False,right,2,3,335,0,1
0,36PW28KO4ZWRJTU4ZY8KIGXCAUQEAQ,82,0.710426203535,0.655563840418,0.647453282745,0.260992840152,left,1,312,False,right,2,3,382,0,1
0,36PW28KO4ZWRJTU4ZY8KIGXCAUQEAQ,83,0.69084005601,0.626748569246,0.618006356653,0.265458837477,left,1,72,False,left,1,3,622,0,1
0,36PW28KO4ZWRJTU4ZY8KIGXCAUQEAQ,84,0.66045000665,0.589118902235,0.582373787352,0.266296660997,right,2,333,False,left,1,2,343,0,1
0,36PW28KO4ZWRJTU4ZY8KIGXCAUQEAQ,85,0.692987016621,0.603946174416,0.594937517543,0.304179889849,right,2,341,False,left,1,2,693,1,1
0,36PW28KO4ZWRJTU4ZY8KIGXCAUQEAQ,86,0.742301951068,0.638028136197,0.598561432857,0.339665013074,right,2,215,True,right,2,3,496,1,1
0,36PW28KO4ZWRJTU4ZY8KIGXCAUQEAQ,87,0.686698795879,0.686641888378,0.563299184018,0.332946702685,right,2,306,True,left,1,3,397,0,1
0,36PW28KO4ZWRJTU4ZY8KIGXCAUQEAQ,88,0.690926289258,0.664793565833,0.567644663702,0.350846869979,right,2,204,True,right,2,3,533,0,1
0,36PW28KO4ZWRJTU4ZY8KIGXCAUQEAQ,89,0.639906407079,0.672512670635,0.552287929984,0.382400271729,right,2,325,True,left,1,3,481,1,1
0,36PW28KO4ZWRJTU4ZY8KIGXCAUQEAQ,90,0.599526089753,0.702037914288,0.551499978304,0.385810615866,right,2,349,True,left,1,3,354,0,1
0,36PW28KO4ZWRJTU4ZY8KIGXCAUQEAQ,91,0.571792989341,0.691019576673,0.521950006971,0.435034807193,left,1,270,True,right,2,2,210,1,1
0,36PW28KO4ZWRJTU4ZY8KIGXCAUQEAQ,92,0.584683137779,0.706512645771,0.51122706761,0.445767985761,left,1,339,True,right,2,2,377,1,1
0,36PW28KO4ZWRJTU4ZY8KIGXCAUQEAQ,93,0.554861172246,0.711737596545,0.492981519726,0.440683358106,left,1,362,True,right,2,2,479,1,1
0,36PW28KO4ZWRJTU4ZY8KIGXCAUQEAQ,94,0.56691541983,0.724832553503,0.484850092769,0.421860460474,left,1,350,True,right,2,2,388,0,1
0,36PW28KO4ZWRJTU4ZY8KIGXCAUQEAQ,95,0.566678637331,0.720026008902,0.464133901312,0.41295891552,left,1,494,False,right,2,3,258,1,1
0,36PW28KO4ZWRJTU4ZY8KIGXCAUQEAQ,96,0.526879516376,0.731858231709,0.476966682047,0.397678154404,left,1,406,True,right,2,2,226,1,1
0,36PW28KO4ZWRJTU4ZY8KIGXCAUQEAQ,97,0.495215171763,0.724235293032,0.515579848533,0.441247188452,left,1,454,True,right,2,2,231,0,1
0,36PW28KO4ZWRJTU4ZY8KIGXCAUQEAQ,98,0.451702131943,0.722808342847,0.534160534675,0.393018126972,left,1,247,True,left,1,2,412,1,1
0,36PW28KO4ZWRJTU4ZY8KIGXCAUQEAQ,99,0.472061866997,0.665813203964,0.484894662984,0.383038572744,left,1,466,True,left,1,2,549,0,1
0,36PW28KO4ZWRJTU4ZY8KIGXCAUQEAQ,100,0.44047725176,0.677258434574,0.482475294507,0.368141735434,left,1,484,True,left,1,2,305,0,1
0,36PW28KO4ZWRJTU4ZY8KIGXCAUQEAQ,101,0.465939039681,0.675360161858,0.477210773749,0.392195785011,left,1,307,False,right,2,3,235,0,1
0,36PW28KO4ZWRJTU4ZY8KIGXCAUQEAQ,102,0.484780332161,0.725432311224,0.488300642483,0.393341274419,left,1,323,False,left,1,3,667,1,1
0,36PW28KO4ZWRJTU4ZY8KIGXCAUQEAQ,103,0.483232027022,0.713118198543,0.510764901989,0.382117662374,right,2,493,False,right,2,2,765,0,1
0,36PW28KO4ZWRJTU4ZY8KIGXCAUQEAQ,104,0.487664781079,0.746520841043,0.488735788724,0.354687213322,right,2,251,True,left,1,3,347,1,1
0,36PW28KO4ZWRJTU4ZY8KIGXCAUQEAQ,105,0.466196046634,0.738623462929,0.484563566009,0.359013680846,right,2,427,False,left,1,2,408,0,1
0,36PW28KO4ZWRJTU4ZY8KIGXCAUQEAQ,106,0.442305640081,0.735684662005,0.457603870736,0.422503378505,right,2,252,True,left,1,3,385,0,1
0,36PW28KO4ZWRJTU4ZY8KIGXCAUQEAQ,107,0.431291039251,0.737970405597,0.474213679147,0.440406871436,right,2,242,False,left,1,2,259,1,1
0,36PW28KO4ZWRJTU4ZY8KIGXCAUQEAQ,108,0.411758552591,0.726683838125,0.424416267289,0.437138352581,left,1,288,True,left,1,2,278,0,1
0,36PW28KO4ZWRJTU4ZY8KIGXCAUQEAQ,109,0.426170150128,0.716216452261,0.437737338122,0.394549101032,left,1,282,False,right,2,3,687,0,1
0,36PW28KO4ZWRJTU4ZY8KIGXCAUQEAQ,110,0.459510607636,0.734927828656,0.409597477729,0.408865363166,left,1,452,True,left,1,2,182,0,1
0,36PW28KO4ZWRJTU4ZY8KIGXCAUQEAQ,111,0.427067584609,0.687396330944,0.422055811318,0.420048706351,left,1,314,True,right,2,2,312,1,1
0,36PW28KO4ZWRJTU4ZY8KIGXCAUQEAQ,112,0.396708940978,0.671869621097,0.433717704758,0.409536015214,left,1,158,True,right,2,2,384,1,1
0,36PW28KO4ZWRJTU4ZY8KIGXCAUQEAQ,113,0.392163878606,0.674074699172,0.421056076456,0.417970716472,left,1,288,True,right,2,2,332,1,1
0,36PW28KO4ZWRJTU4ZY8KIGXCAUQEAQ,114,0.405190010723,0.621025368561,0.435236166576,0.408741840632,left,1,386,True,right,2,2,396,0,1
0,36PW28KO4ZWRJTU4ZY8KIGXCAUQEAQ,115,0.438900538552,0.653627324378,0.436495632727,0.413355976541,left,1,341,True,right,2,2,294,1,1
0,36PW28KO4ZWRJTU4ZY8KIGXCAUQEAQ,116,0.466364070331,0.639706334825,0.420982311789,0.37690224461,left,1,246,True,right,2,2,602,1,1
0,36PW28KO4ZWRJTU4ZY8KIGXCAUQEAQ,117,0.44593666449,0.664991972369,0.444372392431,0.369366843978,left,1,272,True,right,2,2,419,0,1
0,36PW28KO4ZWRJTU4ZY8KIGXCAUQEAQ,118,0.412733194721,0.661210229012,0.483239814095,0.329894679932,left,1,147,True,right,2,2,119,1,1
0,36PW28KO4ZWRJTU4ZY8KIGXCAUQEAQ,119,0.431345823754,0.653591919012,0.468808732687,0.333441714697,left,1,267,True,right,2,2,397,1,1
0,36PW28KO4ZWRJTU4ZY8KIGXCAUQEAQ,120,0.447208271084,0.62713216337,0.475007496911,0.32802780441,left,1,394,True,right,2,2,303,1,1
0,36PW28KO4ZWRJTU4ZY8KIGXCAUQEAQ,121,0.504181576761,0.598908450997,0.515211526458,0.320161421711,left,1,416,True,right,2,2,269,0,1
0,36PW28KO4ZWRJTU4ZY8KIGXCAUQEAQ,122,0.538685689494,0.59872734267,0.581245967994,0.326761785411,left,1,264,True,right,2,2,275,1,1
0,36PW28KO4ZWRJTU4ZY8KIGXCAUQEAQ,123,0.545842916492,0.565631827948,0.572375519669,0.349220564181,left,1,208,True,right,2,2,407,0,1
0,36PW28KO4ZWRJTU4ZY8KIGXCAUQEAQ,124,0.534424600245,0.575336677774,0.589370511578,0.317026148602,right,2,88,False,left,1,2,201,0,1
0,36PW28KO4ZWRJTU4ZY8KIGXCAUQEAQ,125,0.526371932117,0.577041141149,0.5830435132,0.304210055249,right,2,116,True,left,1,3,361,1,1
0,36PW28KO4ZWRJTU4ZY8KIGXCAUQEAQ,126,0.49512953076,0.52563292561,0.545587063314,0.312630586025,right,2,245,False,left,1,2,299,0,1
0,36PW28KO4ZWRJTU4ZY8KIGXCAUQEAQ,127,0.530068526255,0.510034012006,0.577867996947,0.29247870187,right,2,202,True,left,1,3,335,1,1
0,36PW28KO4ZWRJTU4ZY8KIGXCAUQEAQ,128,0.521176469857,0.476556608777,0.587986796524,0.287512284603,right,2,267,True,left,1,3,350,1,1
0,36PW28KO4ZWRJTU4ZY8KIGXCAUQEAQ,129,0.517407173469,0.451511907077,0.63486949102,0.272527687021,right,2,284,True,left,1,3,489,0,1
0,36PW28KO4ZWRJTU4ZY8KIGXCAUQEAQ,130,0.519013950795,0.441926101218,0.638098815725,0.259425093522,right,2,277,False,left,1,2,329,1,1
0,36PW28KO4ZWRJTU4ZY8KIGXCAUQEAQ,131,0.498890596703,0.467441570089,0.653874797874,0.255058599684,right,2,237,True,left,1,3,208,0,1
0,36PW28KO4ZWRJTU4ZY8KIGXCAUQEAQ,132,0.506975099993,0.5138196349,0.723727134143,0.289296114384,right,2,428,True,right,2,3,214,1,1
0,36PW28KO4ZWRJTU4ZY8KIGXCAUQEAQ,133,0.478373189761,0.515418585011,0.739344280162,0.319696009516,right,2,532,True,right,2,3,409,0,1
0,36PW28KO4ZWRJTU4ZY8KIGXCAUQEAQ,134,0.464117630012,0.505406846973,0.710796212728,0.358548929167,right,2,153,True,right,2,3,588,1,1
0,36PW28KO4ZWRJTU4ZY8KIGXCAUQEAQ,135,0.438161564291,0.512963083972,0.663310280412,0.414164557033,right,2,353,True,right,2,3,301,1,1
0,36PW28KO4ZWRJTU4ZY8KIGXCAUQEAQ,136,0.437804854271,0.521267445542,0.707140312177,0.381977117266,right,2,381,True,right,2,3,304,0,1
0,36PW28KO4ZWRJTU4ZY8KIGXCAUQEAQ,137,0.39550576703,0.530734677637,0.722301577653,0.386129965171,left,1,267,True,right,2,2,218,0,1
0,36PW28KO4ZWRJTU4ZY8KIGXCAUQEAQ,138,0.369825946503,0.529297444232,0.705073970166,0.412192170598,left,1,266,True,left,1,2,168,1,1
0,36PW28KO4ZWRJTU4ZY8KIGXCAUQEAQ,139,0.340955933434,0.535677091359,0.676049799996,0.397064309229,left,1,237,False,left,1,3,73,1,1
0,36PW28KO4ZWRJTU4ZY8KIGXCAUQEAQ,140,0.327841930378,0.494485627413,0.67379787808,0.385319942822,left,1,327,True,left,1,2,103,0,1
0,36PW28KO4ZWRJTU4ZY8KIGXCAUQEAQ,141,0.346949999261,0.50276959175,0.631642167891,0.352071439617,right,2,92,True,left,1,3,250,1,1
0,36PW28KO4ZWRJTU4ZY8KIGXCAUQEAQ,142,0.327683547083,0.479498572317,0.588172558354,0.338016967094,right,2,342,True,left,1,3,271,0,1
0,36PW28KO4ZWRJTU4ZY8KIGXCAUQEAQ,143,0.345778721519,0.463422938754,0.621093596977,0.356575357295,right,2,388,False,left,1,2,124,1,1
0,36PW28KO4ZWRJTU4ZY8KIGXCAUQEAQ,144,0.364945822642,0.467786950715,0.638775660409,0.387799137668,left,1,263,True,left,1,2,403,1,1
0,36PW28KO4ZWRJTU4ZY8KIGXCAUQEAQ,145,0.366856198242,0.479262099846,0.638164830174,0.392213022096,left,1,430,False,left,1,3,380,0,1
0,36PW28KO4ZWRJTU4ZY8KIGXCAUQEAQ,146,0.353443186556,0.456792617563,0.592292922404,0.419555911538,left,1,284,True,left,1,2,308,0,1
0,36PW28KO4ZWRJTU4ZY8KIGXCAUQEAQ,147,0.301722088337,0.45830036555,0.622835797891,0.375761582739,right,2,463,True,right,2,3,250,1,1
0,36PW28KO4ZWRJTU4ZY8KIGXCAUQEAQ,148,0.264341556455,0.449775355421,0.662131127511,0.349120033327,right,2,334,True,right,2,3,277,0,1
0,36PW28KO4ZWRJTU4ZY8KIGXCAUQEAQ,149,0.264668248755,0.494929555671,0.639769434173,0.358401192005,left,1,337,True,right,2,2,270,0,1
0,36PW28KO4ZWRJTU4ZY8KIGXCAUQEAQ,150,0.30110562558,0.464280328832,0.609903853688,0.377339726515,right,2,280,False,left,1,2,244,0,1
0,36PW28KO4ZWRJTU4ZY8KIGXCAUQEAQ,151,0.280623215878,0.481986230299,0.626281431716,0.383460733712,right,2,290,False,left,1,2,292,0,1
0,36PW28KO4ZWRJTU4ZY8KIGXCAUQEAQ,152,0.304683770407,0.502435718544,0.643640302365,0.391815879345,left,1,308,False,right,2,3,261,1,1
0,36PW28KO4ZWRJTU4ZY8KIGXCAUQEAQ,153,0.283322642867,0.498139442605,0.642128054045,0.352140031719,left,1,291,True,right,2,2,516,1,1
0,36PW28KO4ZWRJTU4ZY8KIGXCAUQEAQ,154,0.306269030949,0.451614361835,0.654672308956,0.348380129875,left,1,279,False,right,2,3,291,0,1
0,36PW28KO4ZWRJTU4ZY8KIGXCAUQEAQ,155,0.308778603441,0.402575938955,0.656372423923,0.342612192118,right,2,263,True,right,2,3,310,0,1
0,36PW28KO4ZWRJTU4ZY8KIGXCAUQEAQ,156,0.33451263543,0.446579202849,0.658542188835,0.357265872674,right,2,298,True,right,2,3,218,0,1
0,36PW28KO4ZWRJTU4ZY8KIGXCAUQEAQ,157,0.297271386897,0.430236977273,0.63540553159,0.375693693187,left,1,409,False,right,2,3,111,0,1
0,36PW28KO4ZWRJTU4ZY8KIGXCAUQEAQ,158,0.28858538497,0.452657205597,0.623941677319,0.338900571893,right,2,132,True,left,1,3,276,1,1
0,36PW28KO4ZWRJTU4ZY8KIGXCAUQEAQ,159,0.25563944793,0.465453983137,0.603769339648,0.360800282578,right,2,130,False,left,1,2,821,0,1
0,36PW28KO4ZWRJTU4ZY8KIGXCAUQEAQ,160,0.26148909479,0.460071212732,0.606546526811,0.307855002198,right,2,328,False,right,2,2,589,1,1
0,36PW28KO4ZWRJTU4ZY8KIGXCAUQEAQ,161,0.274099036929,0.459478985881,0.637334141907,0.33532419807,right,2,327,True,left,1,3,247,0,1
0,36PW28KO4ZWRJTU4ZY8KIGXCAUQEAQ,162,0.307966452014,0.46872058764,0.637873391684,0.34623859314,left,1,26,True,right,2,2,315,0,1
0,36PW28KO4ZWRJTU4ZY8KIGXCAUQEAQ,163,0.270379620162,0.466356103946,0.646717215096,0.393464062872,left,1,156,True,left,1,2,219,1,1
0,36PW28KO4ZWRJTU4ZY8KIGXCAUQEAQ,164,0.251737674833,0.479336880963,0.619903246132,0.413261205596,left,1,90,True,left,1,2,536,1,1
0,36PW28KO4ZWRJTU4ZY8KIGXCAUQEAQ,165,0.286525398425,0.440569128367,0.665760959524,0.388390710515,left,1,363,False,left,1,3,307,1,1
0,36PW28KO4ZWRJTU4ZY8KIGXCAUQEAQ,166,0.261801143272,0.465180125042,0.643203603033,0.383915211172,left,1,353,True,left,1,2,281,0,1
0,36PW28KO4ZWRJTU4ZY8KIGXCAUQEAQ,167,0.272758270544,0.481601358765,0.636703274324,0.398893295312,left,1,328,True,left,1,2,246,0,1
0,36PW28KO4ZWRJTU4ZY8KIGXCAUQEAQ,168,0.269275042302,0.502893453039,0.650418341444,0.359880215179,right,2,318,False,left,1,2,202,0,1
0,36PW28KO4ZWRJTU4ZY8KIGXCAUQEAQ,169,0.321244877244,0.528573132907,0.66957626249,0.376463063499,right,2,59,True,left,1,3,457,0,1
0,36PW28KO4ZWRJTU4ZY8KIGXCAUQEAQ,170,0.327522928076,0.508532688437,0.657874425455,0.417988749297,right,2,109,False,right,2,2,259,1,1
0,36PW28KO4ZWRJTU4ZY8KIGXCAUQEAQ,171,0.34872481577,0.521911121289,0.655656229698,0.380266706389,left,1,139,True,right,2,2,432,1,1
0,36PW28KO4ZWRJTU4ZY8KIGXCAUQEAQ,172,0.336841396031,0.530428789858,0.665971836127,0.435348605431,left,1,423,False,right,2,3,674,0,1
0,36PW28KO4ZWRJTU4ZY8KIGXCAUQEAQ,173,0.341837444982,0.543180536576,0.641218605426,0.435268405162,left,1,336,True,right,2,2,444,0,1
0,36PW28KO4ZWRJTU4ZY8KIGXCAUQEAQ,174,0.361177028459,0.521201170706,0.655514534501,0.398994989097,right,2,109,True,right,2,3,157,0,1
0,36PW28KO4ZWRJTU4ZY8KIGXCAUQEAQ,175,0.364315395636,0.512763678168,0.648019936904,0.412392336042,right,2,517,True,left,1,3,511,1,1
0,36PW28KO4ZWRJTU4ZY8KIGXCAUQEAQ,176,0.325623919085,0.539890651839,0.64529531605,0.410745872858,right,2,334,True,left,1,3,360,1,1
0,36PW28KO4ZWRJTU4ZY8KIGXCAUQEAQ,177,0.328074179675,0.524925149085,0.619815607172,0.411582007364,right,2,293,True,left,1,3,371,0,1
0,36PW28KO4ZWRJTU4ZY8KIGXCAUQEAQ,178,0.305001535271,0.493612808469,0.65849625896,0.406841658435,right,2,356,True,left,1,3,311,1,1
0,36PW28KO4ZWRJTU4ZY8KIGXCAUQEAQ,179,0.33002181643,0.469098789392,0.665879712377,0.388386596992,right,2,516,True,left,1,3,537,0,1
0,36PW28KO4ZWRJTU4ZY8KIGXCAUQEAQ,180,0.325471872487,0.471028202714,0.645318430493,0.362128500137,right,2,103,True,left,1,3,180,0,1
0,36PW28KO4ZWRJTU4ZY8KIGXCAUQEAQ,181,0.302119409191,0.487451370839,0.634210371211,0.361006423102,right,2,413,True,right,2,3,285,1,1
0,36PW28KO4ZWRJTU4ZY8KIGXCAUQEAQ,182,0.319687136795,0.53025520447,0.645170330557,0.344822759162,right,2,534,True,right,2,3,454,0,1
0,36PW28KO4ZWRJTU4ZY8KIGXCAUQEAQ,183,0.340622623277,0.558125328014,0.642579369694,0.339710510642,left,1,451,True,right,2,2,428,0,1
0,36PW28KO4ZWRJTU4ZY8KIGXCAUQEAQ,184,0.326804303598,0.549400692329,0.592456717601,0.330638649531,left,1,288,True,left,1,2,487,0,1
0,36PW28KO4ZWRJTU4ZY8KIGXCAUQEAQ,185,0.330197767995,0.557380521394,0.611489817058,0.338332086986,right,2,289,False,left,1,2,342,0,1
0,36PW28KO4ZWRJTU4ZY8KIGXCAUQEAQ,186,0.305779190282,0.583624605417,0.613460177028,0.345801403967,right,2,118,True,left,1,3,375,0,1
0,36PW28KO4ZWRJTU4ZY8KIGXCAUQEAQ,187,0.301883092183,0.622316346564,0.630140532196,0.38159969755,left,1,186,False,right,2,3,235,1,1
0,36PW28KO4ZWRJTU4ZY8KIGXCAUQEAQ,188,0.312907636544,0.586220534512,0.613095018461,0.400276008253,right,2,15,False,right,2,2,252,1,1
0,36PW28KO4ZWRJTU4ZY8KIGXCAUQEAQ,189,0.352377051111,0.586986758336,0.572784351066,0.344680966765,right,2,145,True,right,2,3,353,0,1
0,36PW28KO4ZWRJTU4ZY8KIGXCAUQEAQ,190,0.344876724602,0.638157165375,0.581975754788,0.351436314975,left,1,68,False,right,2,3,381,0,1
0,36PW28KO4ZWRJTU4ZY8KIGXCAUQEAQ,191,0.392391798853,0.667164906322,0.552605566262,0.325587875814,left,1,253,True,right,2,2,287,1,1
0,36PW28KO4ZWRJTU4ZY8KIGXCAUQEAQ,192,0.412042040593,0.644357666507,0.547124920533,0.329218442292,left,1,407,True,right,2,2,374,1,1
0,36PW28KO4ZWRJTU4ZY8KIGXCAUQEAQ,193,0.379965792173,0.664566689272,0.570912410757,0.325998113065,left,1,355,False,right,2,3,436,0,1
0,36PW28KO4ZWRJTU4ZY8KIGXCAUQEAQ,194,0.389664565012,0.664375095335,0.55849233557,0.366447813253,left,1,199,True,right,2,2,362,1,1
0,36PW28KO4ZWRJTU4ZY8KIGXCAUQEAQ,195,0.395044614715,0.72543228023,0.519210011433,0.355126527027,left,1,236,False,right,2,3,491,1,1
0,36PW28KO4ZWRJTU4ZY8KIGXCAUQEAQ,196,0.383792753181,0.712424710636,0.479336007569,0.387209370348,left,1,290,False,right,2,3,257,0,1
0,36PW28KO4ZWRJTU4ZY8KIGXCAUQEAQ,197,0.37306997392,0.734290462084,0.460441785745,0.375364189949,left,1,413,True,right,2,2,535,1,1
0,36PW28KO4ZWRJTU4ZY8KIGXCAUQEAQ,198,0.440370694377,0.747560565418,0.460608262771,0.410302321559,left,1,332,False,right,2,3,414,0,1
0,36PW28KO4ZWRJTU4ZY8KIGXCAUQEAQ,199,0.471404410712,0.7366478523,0.467873357418,0.375276531813,left,1,271,True,right,2,2,377,1,1
0,36PW28KO4ZWRJTU4ZY8KIGXCAUQEAQ,200,0.487117657235,0.736005509776,0.446751124312,0.402649308091,left,1,149,True,right,2,2,705,1,1
1,3JPSL1DZ5SZVDZ7HSXB383RLNOIAN5,1,0.742621470936,0.272532468277,0.71669309271,0.479056705494,left,1,1110,True,right,2,2,655,1,1
1,3JPSL1DZ5SZVDZ7HSXB383RLNOIAN5,2,0.714054437546,0.28956974681,0.711770360008,0.456458310278,right,2,661,False,right,2,2,642,1,1
1,3JPSL1DZ5SZVDZ7HSXB383RLNOIAN5,3,0.708947909512,0.346194423994,0.714402963935,0.46593679168,left,1,429,True,left,1,2,233,1,1
1,3JPSL1DZ5SZVDZ7HSXB383RLNOIAN5,4,0.732490347346,0.339447868367,0.704013189795,0.385709276536,left,1,566,True,right,2,2,185,0,1
1,3JPSL1DZ5SZVDZ7HSXB383RLNOIAN5,5,0.717249489061,0.407606752597,0.721518196281,0.422206287292,right,2,451,True,right,2,3,431,1,1
1,3JPSL1DZ5SZVDZ7HSXB383RLNOIAN5,6,0.6630928988,0.45511262148,0.721181153667,0.404565489562,left,1,545,True,left,1,2,228,1,1
1,3JPSL1DZ5SZVDZ7HSXB383RLNOIAN5,7,0.672738831011,0.474384545792,0.743141113631,0.381869747044,right,2,1158,False,right,2,2,1,1,1
1,3JPSL1DZ5SZVDZ7HSXB383RLNOIAN5,8,0.668045339679,0.480846588706,0.731564879728,0.405588632962,left,1,811,True,right,2,2,102,1,1
1,3JPSL1DZ5SZVDZ7HSXB383RLNOIAN5,9,0.669015262022,0.513473956177,0.728107518412,0.40687276212,left,1,1000,False,right,2,3,933,1,1
1,3JPSL1DZ5SZVDZ7HSXB383RLNOIAN5,10,0.64671120204,0.526146178979,0.730336497662,0.408509497299,left,1,350,False,left,1,3,288,1,1
1,3JPSL1DZ5SZVDZ7HSXB383RLNOIAN5,11,0.607944402512,0.543315429143,0.724719472529,0.381349699905,left,1,652,True,left,1,2,119,1,1
1,3JPSL1DZ5SZVDZ7HSXB383RLNOIAN5,12,0.623056850805,0.526648888826,0.697371744877,0.395908106836,left,1,624,True,left,1,2,623,0,1
1,3JPSL1DZ5SZVDZ7HSXB383RLNOIAN5,13,0.607721669601,0.554902084053,0.689983332344,0.380218517946,left,1,406,True,right,2,2,790,1,1
1,3JPSL1DZ5SZVDZ7HSXB383RLNOIAN5,14,0.642416333717,0.576955978171,0.708708278957,0.341168637042,left,1,306,True,right,2,2,728,1,1
1,3JPSL1DZ5SZVDZ7HSXB383RLNOIAN5,15,0.614010351756,0.604034382831,0.732507162725,0.350118401239,right,2,601,False,left,1,2,523,0,1
1,3JPSL1DZ5SZVDZ7HSXB383RLNOIAN5,16,0.680413307829,0.594441283734,0.716261232916,0.355798838571,right,2,593,False,left,1,2,524,0,1
1,3JPSL1DZ5SZVDZ7HSXB383RLNOIAN5,17,0.67102435131,0.588086274504,0.730069464085,0.330877938548,right,2,632,False,right,2,2,499,1,1
1,3JPSL1DZ5SZVDZ7HSXB383RLNOIAN5,18,0.718432568922,0.568204732239,0.686176168762,0.309765161617,right,2,688,False,right,2,2,190,1,1
1,3JPSL1DZ5SZVDZ7HSXB383RLNOIAN5,19,0.713141823764,0.57865702431,0.696062430132,0.367234912443,right,2,580,True,right,2,3,138,1,1
1,3JPSL1DZ5SZVDZ7HSXB383RLNOIAN5,20,0.707002308783,0.572723191735,0.701021460261,0.344983910079,right,2,479,True,right,2,3,394,1,1
1,3JPSL1DZ5SZVDZ7HSXB383RLNOIAN5,21,0.697338532194,0.583247904064,0.713862580976,0.369623913462,right,2,497,True,right,2,3,630,0,1
1,3JPSL1DZ5SZVDZ7HSXB383RLNOIAN5,22,0.683738606376,0.577831132902,0.720175638244,0.347221826515,right,2,443,True,left,1,3,611,1,1
1,3JPSL1DZ5SZVDZ7HSXB383RLNOIAN5,23,0.723666933292,0.594247039033,0.678758987791,0.350429018148,right,2,166,True,left,1,3,196,0,1
1,3JPSL1DZ5SZVDZ7HSXB383RLNOIAN5,24,0.722552862976,0.64363551746,0.657672810429,0.358987448701,left,1,411,True,left,1,2,1112,1,1
1,3JPSL1DZ5SZVDZ7HSXB383RLNOIAN5,25,0.729163712473,0.664465485514,0.659189229643,0.373726090068,left,1,878,True,left,1,2,506,1,1
1,3JPSL1DZ5SZVDZ7HSXB383RLNOIAN5,26,0.736463051067,0.667677417009,0.633789239965,0.388062858383,left,1,352,True,left,1,2,252,0,1
1,3JPSL1DZ5SZVDZ7HSXB383RLNOIAN5,27,0.743521712443,0.680410974005,0.603566014102,0.365819318125,left,1,445,False,right,2,3,665,0,1
1,3JPSL1DZ5SZVDZ7HSXB383RLNOIAN5,28,0.732307752744,0.688129657145,0.639730342634,0.324473032481,left,1,470,False,left,1,3,1017,0,1
1,3JPSL1DZ5SZVDZ7HSXB383RLNOIAN5,29,0.736811669823,0.670863418611,0.612317833639,0.359797741125,right,2,915,False,left,1,2,1061,1,1
1,3JPSL1DZ5SZVDZ7HSXB383RLNOIAN5,30,0.743345059239,0.664878919109,0.616259626176,0.316896486661,right,2,729,True,left,1,3,569,0,1
1,3JPSL1DZ5SZVDZ7HSXB383RLNOIAN5,31,0.746265616093,0.667204230628,0.57959946249,0.31335500672,right,2,471,True,left,1,3,653,1,1
1,3JPSL1DZ5SZVDZ7HSXB383RLNOIAN5,32,0.723199980689,0.64267698388,0.581017754762,0.308527186817,left,1,827,True,left,1,2,758,0,1
1,3JPSL1DZ5SZVDZ7HSXB383RLNOIAN5,33,0.694695825122,0.703101902478,0.568902198934,0.290605018323,right,2,636,True,left,1,3,472,1,1
1,3JPSL1DZ5SZVDZ7HSXB383RLNOIAN5,34,0.67334094861,0.696419411433,0.578031478635,0.309599444775,right,2,1126,True,left,1,3,402,1,1
1,3JPSL1DZ5SZVDZ7HSXB383RLNOIAN5,35,0.652335091449,0.70438345769,0.59605536339,0.279470956194,right,2,705,True,left,1,3,158,0,1
1,3JPSL1DZ5SZVDZ7HSXB383RLNOIAN5,36,0.657451953133,0.683837920999,0.568078580687,0.27404823551,right,2,226,True,right,2,3,18,0,1
1,3JPSL1DZ5SZVDZ7HSXB383RLNOIAN5,37,0.675374672435,0.712212599172,0.561377542482,0.284355796866,right,2,669,True,right,2,3,529,0,1
1,3JPSL1DZ5SZVDZ7HSXB383RLNOIAN5,38,0.671284094134,0.716259324014,0.566258884749,0.269938039503,left,1,508,False,right,2,3,221,1,1
1,3JPSL1DZ5SZVDZ7HSXB383RLNOIAN5,39,0.654751036327,0.744322707512,0.618638427368,0.294912002446,left,1,484,True,right,2,2,553,1,1
1,3JPSL1DZ5SZVDZ7HSXB383RLNOIAN5,40,0.660675754074,0.685611640794,0.605892201903,0.270200805787,left,1,438,True,right,2,2,482,1,1
1,3JPSL1DZ5SZVDZ7HSXB383RLNOIAN5,41,0.697626230879,0.729448779435,0.608670557774,0.256991528728,left,1,598,True,right,2,2,86,1,1
1,3JPSL1DZ5SZVDZ7HSXB383RLNOIAN5,42,0.726645073604,0.717332378805,0.603307527487,0.277574736158,left,1,495,True,right,2,2,548,1,1
1,3JPSL1DZ5SZVDZ7HSXB383RLNOIAN5,43,0.710785605187,0.73572032618,0.603035835786,0.300463039776,left,1,594,False,right,2,3,494,0,1
1,3JPSL1DZ5SZVDZ7HSXB383RLNOIAN5,44,0.690886938659,0.740720643321,0.608800181298,0.305367115844,right,2,460,True,right,2,3,536,0,1
1,3JPSL1DZ5SZVDZ7HSXB383RLNOIAN5,45,0.682073026999,0.726886066092,0.597549552128,0.298118154697,right,2,971,False,left,1,2,527,1,1
1,3JPSL1DZ5SZVDZ7HSXB383RLNOIAN5,46,0.692167085493,0.701363725585,0.639345636163,0.368054277054,right,2,690,False,left,1,2,3,0,1
1,3JPSL1DZ5SZVDZ7HSXB383RLNOIAN5,47,0.726979525113,0.685298681928,0.665140217735,0.392550601145,right,2,554,True,right,2,3,139,0,1
1,3JPSL1DZ5SZVDZ7HSXB383RLNOIAN5,48,0.734914379351,0.68153045423,0.667316355854,0.380373869228,right,2,634,True,left,1,3,526,0,1
1,3JPSL1DZ5SZVDZ7HSXB383RLNOIAN5,49,0.714865063908,0.653994687644,0.672014216512,0.367354016553,left,1,329,True,right,2,2,467,1,1
1,3JPSL1DZ5SZVDZ7HSXB383RLNOIAN5,50,0.713201331899,0.676140093398,0.674811303487,0.344411485936,left,1,626,False,right,2,3,12,0,1
1,3JPSL1DZ5SZVDZ7HSXB383RLNOIAN5,51,0.73310943824,0.669322372281,0.662652287375,0.29720573873,right,2,348,True,left,1,3,132,1,1
1,3JPSL1DZ5SZVDZ7HSXB383RLNOIAN5,52,0.700235093867,0.701682886358,0.677069605794,0.332317401302,right,2,1062,True,left,1,3,402,1,1
1,3JPSL1DZ5SZVDZ7HSXB383RLNOIAN5,53,0.681608516568,0.679629779822,0.681276831864,0.288342858569,right,2,724,True,left,1,3,119,1,1
1,3JPSL1DZ5SZVDZ7HSXB383RLNOIAN5,54,0.611253601709,0.660626826063,0.70952385264,0.330572173264,right,2,614,False,left,1,2,12,1,1
1,3JPSL1DZ5SZVDZ7HSXB383RLNOIAN5,55,0.66703777187,0.672946186741,0.737926106414,0.317011361338,right,2,761,True,left,1,3,111,0,1
1,3JPSL1DZ5SZVDZ7HSXB383RLNOIAN5,56,0.663328365422,0.668736431958,0.720239436976,0.329794236079,left,1,679,False,left,1,3,230,1,1
1,3JPSL1DZ5SZVDZ7HSXB383RLNOIAN5,57,0.612291779763,0.64812962841,0.714275483314,0.285713898761,left,1,443,True,left,1,2,406,0,1
1,3JPSL1DZ5SZVDZ7HSXB383RLNOIAN5,58,0.601996752534,0.690302803125,0.676016484568,0.271887355155,right,2,436,True,right,2,3,130,0,1
1,3JPSL1DZ5SZVDZ7HSXB383RLNOIAN5,59,0.613291721538,0.709488073072,0.661531678887,0.299130690859,right,2,469,False,left,1,2,543,0,1
1,3JPSL1DZ5SZVDZ7HSXB383RLNOIAN5,60,0.576180172387,0.710892275986,0.652653677393,0.314466701606,left,1,568,False,right,2,3,519,0,1
1,3JPSL1DZ5SZVDZ7HSXB383RLNOIAN5,61,0.55143212238,0.6853037472,0.679903912304,0.298421798989,left,1,533,False,right,2,3,583,1,1
1,3JPSL1DZ5SZVDZ7HSXB383RLNOIAN5,62,0.552884156424,0.712766267125,0.703638809173,0.32433324524,left,1,536,True,right,2,2,455,0,1
1,3JPSL1DZ5SZVDZ7HSXB383RLNOIAN5,63,0.523932583535,0.711521035133,0.679767370885,0.337888246509,right,2,188,True,left,1,3,21,1,1
1,3JPSL1DZ5SZVDZ7HSXB383RLNOIAN5,64,0.463568418654,0.711676676089,0.654057416911,0.301245991201,right,2,697,False,left,1,2,878,1,1
1,3JPSL1DZ5SZVDZ7HSXB383RLNOIAN5,65,0.512684775876,0.72135123212,0.608900413955,0.307315993953,right,2,849,True,left,1,3,587,0,1
1,3JPSL1DZ5SZVDZ7HSXB383RLNOIAN5,66,0.4789698412,0.699848934728,0.614568831315,0.250436393356,left,1,488,True,left,1,2,540,0,1
1,3JPSL1DZ5SZVDZ7HSXB383RLNOIAN5,67,0.4762029504,0.694385754211,0.632767436931,0.284111851193,right,2,685,False,left,1,2,472,1,1
1,3JPSL1DZ5SZVDZ7HSXB383RLNOIAN5,68,0.507081830395,0.677726367322,0.626004736862,0.317292542624,right,2,687,True,left,1,3,592,1,1
1,3JPSL1DZ5SZVDZ7HSXB383RLNOIAN5,69,0.530878795539,0.655313569542,0.603059838512,0.35399122944,right,2,662,True,left,1,3,30,0,1
1,3JPSL1DZ5SZVDZ7HSXB383RLNOIAN5,70,0.515056866669,0.621614881021,0.58701353054,0.316633763971,right,2,672,True,left,1,3,607,0,1
1,3JPSL1DZ5SZVDZ7HSXB383RLNOIAN5,71,0.564088952011,0.605891511566,0.597831961545,0.302344162838,right,2,561,False,right,2,2,191,0,1
1,3JPSL1DZ5SZVDZ7HSXB383RLNOIAN5,72,0.54449084523,0.577146163723,0.59199090907,0.331577263471,right,2,538,True,left,1,3,134,1,1
1,3JPSL1DZ5SZVDZ7HSXB383RLNOIAN5,73,0.566979079908,0.605338027274,0.564635273227,0.330100786862,right,2,406,True,left,1,3,644,0,1
1,3JPSL1DZ5SZVDZ7HSXB383RLNOIAN5,74,0.551299433382,0.607923806021,0.548505305566,0.309216084463,right,2,545,True,right,2,3,427,0,1
1,3JPSL1DZ5SZVDZ7HSXB383RLNOIAN5,75,0.542745978,0.589975468932,0.538285961481,0.334258316899,left,1,82,False,right,2,3,278,0,1
1,3JPSL1DZ5SZVDZ7HSXB383RLNOIAN5,76,0.561497649091,0.630898581991,0.556776422344,0.331123452327,left,1,571,True,left,1,2,455,0,1
1,3JPSL1DZ5SZVDZ7HSXB383RLNOIAN5,77,0.589017199812,0.627952603444,0.550030110147,0.346628080055,left,1,507,True,right,2,2,144,0,1
1,3JPSL1DZ5SZVDZ7HSXB383RLNOIAN5,78,0.584186560288,0.579581394278,0.557708870011,0.372955434066,left,1,683,True,left,1,2,109,1,1
1,3JPSL1DZ5SZVDZ7HSXB383RLNOIAN5,79,0.663978965977,0.603348757443,0.596450133085,0.335534554466,left,1,676,True,left,1,2,74,1,1
1,3JPSL1DZ5SZVDZ7HSXB383RLNOIAN5,80,0.685488538842,0.661324828013,0.628562826405,0.317508487146,left,1,621,False,left,1,3,22,0,1
1,3JPSL1DZ5SZVDZ7HSXB383RLNOIAN5,81,0.689540608913,0.642447759192,0.639191253292,0.280146174731,left,1,717,True,right,2,2,45,1,1
1,3JPSL1DZ5SZVDZ7HSXB383RLNOIAN5,82,0.710426203535,0.655563840418,0.647453282745,0.260992840152,left,1,685,True,right,2,2,64,1,1
1,3JPSL1DZ5SZVDZ7HSXB383RLNOIAN5,83,0.69084005601,0.626748569246,0.618006356653,0.265458837477,left,1,551,True,right,2,2,414,1,1
1,3JPSL1DZ5SZVDZ7HSXB383RLNOIAN5,84,0.66045000665,0.589118902235,0.582373787352,0.266296660997,left,1,477,True,right,2,2,516,0,1
1,3JPSL1DZ5SZVDZ7HSXB383RLNOIAN5,85,0.692987016621,0.603946174416,0.594937517543,0.304179889849,left,1,697,True,left,1,2,335,1,1
1,3JPSL1DZ5SZVDZ7HSXB383RLNOIAN5,86,0.742301951068,0.638028136197,0.598561432857,0.339665013074,left,1,587,True,right,2,2,31,1,1
1,3JPSL1DZ5SZVDZ7HSXB383RLNOIAN5,87,0.686698795879,0.686641888378,0.563299184018,0.332946702685,left,1,474,True,right,2,2,142,1,1
1,3JPSL1DZ5SZVDZ7HSXB383RLNOIAN5,88,0.690926289258,0.664793565833,0.567644663702,0.350846869979,left,1,545,True,right,2,2,378,1,1
1,3JPSL1DZ5SZVDZ7HSXB383RLNOIAN5,89,0.639906407079,0.672512670635,0.552287929984,0.382400271729,left,1,689,True,right,2,2,117,0,1
1,3JPSL1DZ5SZVDZ7HSXB383RLNOIAN5,90,0.599526089753,0.702037914288,0.551499978304,0.385810615866,right,2,671,True,right,2,3,902,0,1
1,3JPSL1DZ5SZVDZ7HSXB383RLNOIAN5,91,0.571792989341,0.691019576673,0.521950006971,0.435034807193,right,2,758,False,left,1,2,867,0,1
1,3JPSL1DZ5SZVDZ7HSXB383RLNOIAN5,92,0.584683137779,0.706512645771,0.51122706761,0.445767985761,right,2,623,True,right,2,3,193,0,1
1,3JPSL1DZ5SZVDZ7HSXB383RLNOIAN5,93,0.554861172246,0.711737596545,0.492981519726,0.440683358106,left,1,518,False,right,2,3,261,0,1
1,3JPSL1DZ5SZVDZ7HSXB383RLNOIAN5,94,0.56691541983,0.724832553503,0.484850092769,0.421860460474,left,1,452,False,left,1,3,1166,0,1
1,3JPSL1DZ5SZVDZ7HSXB383RLNOIAN5,95,0.566678637331,0.720026008902,0.464133901312,0.41295891552,left,1,572,False,right,2,3,809,1,1
1,3JPSL1DZ5SZVDZ7HSXB383RLNOIAN5,96,0.526879516376,0.731858231709,0.476966682047,0.397678154404,left,1,730,True,right,2,2,580,1,1
1,3JPSL1DZ5SZVDZ7HSXB383RLNOIAN5,97,0.495215171763,0.724235293032,0.515579848533,0.441247188452,left,1,473,True,right,2,2,56,0,1
1,3JPSL1DZ5SZVDZ7HSXB383RLNOIAN5,98,0.451702131943,0.722808342847,0.534160534675,0.393018126972,right,2,900,True,right,2,3,500,0,1
1,3JPSL1DZ5SZVDZ7HSXB383RLNOIAN5,99,0.472061866997,0.665813203964,0.484894662984,0.383038572744,right,2,552,True,left,1,3,481,1,1
1,3JPSL1DZ5SZVDZ7HSXB383RLNOIAN5,100,0.44047725176,0.677258434574,0.482475294507,0.368141735434,right,2,612,True,left,1,3,688,0,1
1,3JPSL1DZ5SZVDZ7HSXB383RLNOIAN5,101,0.465939039681,0.675360161858,0.477210773749,0.392195785011,left,1,414,True,right,2,2,596,1,1
1,3JPSL1DZ5SZVDZ7HSXB383RLNOIAN5,102,0.484780332161,0.725432311224,0.488300642483,0.393341274419,left,1,202,True,right,2,2,413,1,1
1,3JPSL1DZ5SZVDZ7HSXB383RLNOIAN5,103,0.483232027022,0.713118198543,0.510764901989,0.382117662374,left,1,351,True,right,2,2,523,1,1
1,3JPSL1DZ5SZVDZ7HSXB383RLNOIAN5,104,0.487664781079,0.746520841043,0.488735788724,0.354687213322,left,1,589,True,right,2,2,340,1,1
1,3JPSL1DZ5SZVDZ7HSXB383RLNOIAN5,105,0.466196046634,0.738623462929,0.484563566009,0.359013680846,left,1,461,True,right,2,2,63,1,1
1,3JPSL1DZ5SZVDZ7HSXB383RLNOIAN5,106,0.442305640081,0.735684662005,0.457603870736,0.422503378505,left,1,702,False,right,2,3,7,1,1
1,3JPSL1DZ5SZVDZ7HSXB383RLNOIAN5,107,0.431291039251,0.737970405597,0.474213679147,0.440406871436,left,1,230,True,right,2,2,634,0,1
1,3JPSL1DZ5SZVDZ7HSXB383RLNOIAN5,108,0.411758552591,0.726683838125,0.424416267289,0.437138352581,right,2,108,False,right,2,2,590,1,1
1,3JPSL1DZ5SZVDZ7HSXB383RLNOIAN5,109,0.426170150128,0.716216452261,0.437737338122,0.394549101032,right,2,457,False,right,2,2,160,1,1
1,3JPSL1DZ5SZVDZ7HSXB383RLNOIAN5,110,0.459510607636,0.734927828656,0.409597477729,0.408865363166,right,2,886,True,right,2,3,910,1,1
1,3JPSL1DZ5SZVDZ7HSXB383RLNOIAN5,111,0.427067584609,0.687396330944,0.422055811318,0.420048706351,right,2,672,True,right,2,3,772,1,1
1,3JPSL1DZ5SZVDZ7HSXB383RLNOIAN5,112,0.396708940978,0.671869621097,0.433717704758,0.409536015214,right,2,607,True,right,2,3,524,1,1
1,3JPSL1DZ5SZVDZ7HSXB383RLNOIAN5,113,0.392163878606,0.674074699172,0.421056076456,0.417970716472,right,2,653,True,right,2,3,966,0,1
1,3JPSL1DZ5SZVDZ7HSXB383RLNOIAN5,114,0.405190010723,0.621025368561,0.435236166576,0.408741840632,left,1,604,True,left,1,2,665,0,1
1,3JPSL1DZ5SZVDZ7HSXB383RLNOIAN5,115,0.438900538552,0.653627324378,0.436495632727,0.413355976541,left,1,653,True,right,2,2,306,1,1
1,3JPSL1DZ5SZVDZ7HSXB383RLNOIAN5,116,0.466364070331,0.639706334825,0.420982311789,0.37690224461,left,1,667,False,right,2,3,743,0,1
1,3JPSL1DZ5SZVDZ7HSXB383RLNOIAN5,117,0.44593666449,0.664991972369,0.444372392431,0.369366843978,left,1,625,False,left,1,3,489,1,1
1,3JPSL1DZ5SZVDZ7HSXB383RLNOIAN5,118,0.412733194721,0.661210229012,0.483239814095,0.329894679932,left,1,584,False,left,1,3,706,1,1
1,3JPSL1DZ5SZVDZ7HSXB383RLNOIAN5,119,0.431345823754,0.653591919012,0.468808732687,0.333441714697,left,1,566,True,right,2,2,998,0,1
1,3JPSL1DZ5SZVDZ7HSXB383RLNOIAN5,120,0.447208271084,0.62713216337,0.475007496911,0.32802780441,left,1,966,True,right,2,2,930,1,1
1,3JPSL1DZ5SZVDZ7HSXB383RLNOIAN5,121,0.504181576761,0.598908450997,0.515211526458,0.320161421711,left,1,474,True,right,2,2,594,1,1
1,3JPSL1DZ5SZVDZ7HSXB383RLNOIAN5,122,0.538685689494,0.59872734267,0.581245967994,0.326761785411,left,1,520,True,right,2,2,445,0,1
1,3JPSL1DZ5SZVDZ7HSXB383RLNOIAN5,123,0.545842916492,0.565631827948,0.572375519669,0.349220564181,right,2,404,True,right,2,3,461,1,1
1,3JPSL1DZ5SZVDZ7HSXB383RLNOIAN5,124,0.534424600245,0.575336677774,0.589370511578,0.317026148602,right,2,658,True,right,2,3,435,0,1
1,3JPSL1DZ5SZVDZ7HSXB383RLNOIAN5,125,0.526371932117,0.577041141149,0.5830435132,0.304210055249,right,2,601,True,left,1,3,541,1,1
1,3JPSL1DZ5SZVDZ7HSXB383RLNOIAN5,126,0.49512953076,0.52563292561,0.545587063314,0.312630586025,right,2,654,True,left,1,3,701,1,1
1,3JPSL1DZ5SZVDZ7HSXB383RLNOIAN5,127,0.530068526255,0.510034012006,0.577867996947,0.29247870187,right,2,653,True,left,1,3,242,0,1
1,3JPSL1DZ5SZVDZ7HSXB383RLNOIAN5,128,0.521176469857,0.476556608777,0.587986796524,0.287512284603,left,1,627,True,left,1,2,800,0,1
1,3JPSL1DZ5SZVDZ7HSXB383RLNOIAN5,129,0.517407173469,0.451511907077,0.63486949102,0.272527687021,left,1,778,True,right,2,2,886,0,1
1,3JPSL1DZ5SZVDZ7HSXB383RLNOIAN5,130,0.519013950795,0.441926101218,0.638098815725,0.259425093522,right,2,695,True,right,2,3,845,1,1
1,3JPSL1DZ5SZVDZ7HSXB383RLNOIAN5,131,0.498890596703,0.467441570089,0.653874797874,0.255058599684,right,2,625,True,right,2,3,577,0,1
1,3JPSL1DZ5SZVDZ7HSXB383RLNOIAN5,132,0.506975099993,0.5138196349,0.723727134143,0.289296114384,right,2,635,False,right,2,2,779,1,1
1,3JPSL1DZ5SZVDZ7HSXB383RLNOIAN5,133,0.478373189761,0.515418585011,0.739344280162,0.319696009516,right,2,655,True,right,2,3,948,0,1
1,3JPSL1DZ5SZVDZ7HSXB383RLNOIAN5,134,0.464117630012,0.505406846973,0.710796212728,0.358548929167,right,2,472,True,left,1,3,401,0,1
1,3JPSL1DZ5SZVDZ7HSXB383RLNOIAN5,135,0.438161564291,0.512963083972,0.663310280412,0.414164557033,left,1,365,False,right,2,3,484,1,1
1,3JPSL1DZ5SZVDZ7HSXB383RLNOIAN5,136,0.437804854271,0.521267445542,0.707140312177,0.381977117266,left,1,720,True,right,2,2,509,0,1
1,3JPSL1DZ5SZVDZ7HSXB383RLNOIAN5,137,0.39550576703,0.530734677637,0.722301577653,0.386129965171,right,2,533,True,right,2,3,559,0,1
1,3JPSL1DZ5SZVDZ7HSXB383RLNOIAN5,138,0.369825946503,0.529297444232,0.705073970166,0.412192170598,left,1,410,False,right,2,3,688,1,1
1,3JPSL1DZ5SZVDZ7HSXB383RLNOIAN5,139,0.340955933434,0.535677091359,0.676049799996,0.397064309229,left,1,561,True,right,2,2,570,0,1
1,3JPSL1DZ5SZVDZ7HSXB383RLNOIAN5,140,0.327841930378,0.494485627413,0.67379787808,0.385319942822,right,2,577,True,left,1,3,818,1,1
1,3JPSL1DZ5SZVDZ7HSXB383RLNOIAN5,141,0.346949999261,0.50276959175,0.631642167891,0.352071439617,right,2,623,True,left,1,3,519,0,1
1,3JPSL1DZ5SZVDZ7HSXB383RLNOIAN5,142,0.327683547083,0.479498572317,0.588172558354,0.338016967094,left,1,597,False,right,2,3,635,0,1
1,3JPSL1DZ5SZVDZ7HSXB383RLNOIAN5,143,0.345778721519,0.463422938754,0.621093596977,0.356575357295,left,1,635,True,left,1,2,680,0,1
1,3JPSL1DZ5SZVDZ7HSXB383RLNOIAN5,144,0.364945822642,0.467786950715,0.638775660409,0.387799137668,left,1,572,True,right,2,2,611,1,1
1,3JPSL1DZ5SZVDZ7HSXB383RLNOIAN5,145,0.366856198242,0.479262099846,0.638164830174,0.392213022096,left,1,586,True,right,2,2,1022,0,1
1,3JPSL1DZ5SZVDZ7HSXB383RLNOIAN5,146,0.353443186556,0.456792617563,0.592292922404,0.419555911538,left,1,676,True,left,1,2,527,0,1
1,3JPSL1DZ5SZVDZ7HSXB383RLNOIAN5,147,0.301722088337,0.45830036555,0.622835797891,0.375761582739,right,2,511,False,right,2,2,903,0,1
1,3JPSL1DZ5SZVDZ7HSXB383RLNOIAN5,148,0.264341556455,0.449775355421,0.662131127511,0.349120033327,right,2,762,True,left,1,3,655,1,1
1,3JPSL1DZ5SZVDZ7HSXB383RLNOIAN5,149,0.264668248755,0.494929555671,0.639769434173,0.358401192005,right,2,542,False,left,1,2,297,0,1
1,3JPSL1DZ5SZVDZ7HSXB383RLNOIAN5,150,0.30110562558,0.464280328832,0.609903853688,0.377339726515,right,2,685,True,left,1,3,433,1,1
1,3JPSL1DZ5SZVDZ7HSXB383RLNOIAN5,151,0.280623215878,0.481986230299,0.626281431716,0.383460733712,right,2,610,True,left,1,3,428,1,1
1,3JPSL1DZ5SZVDZ7HSXB383RLNOIAN5,152,0.304683770407,0.502435718544,0.643640302365,0.391815879345,right,2,555,False,left,1,2,164,0,1
1,3JPSL1DZ5SZVDZ7HSXB383RLNOIAN5,153,0.283322642867,0.498139442605,0.642128054045,0.352140031719,left,1,568,True,right,2,2,626,0,1
1,3JPSL1DZ5SZVDZ7HSXB383RLNOIAN5,154,0.306269030949,0.451614361835,0.654672308956,0.348380129875,right,2,632,True,right,2,3,659,0,1
1,3JPSL1DZ5SZVDZ7HSXB383RLNOIAN5,155,0.308778603441,0.402575938955,0.656372423923,0.342612192118,right,2,555,False,right,2,2,492,1,1
1,3JPSL1DZ5SZVDZ7HSXB383RLNOIAN5,156,0.33451263543,0.446579202849,0.658542188835,0.357265872674,right,2,597,True,right,2,3,732,1,1
1,3JPSL1DZ5SZVDZ7HSXB383RLNOIAN5,157,0.297271386897,0.430236977273,0.63540553159,0.375693693187,right,2,541,True,left,1,3,685,0,1
1,3JPSL1DZ5SZVDZ7HSXB383RLNOIAN5,158,0.28858538497,0.452657205597,0.623941677319,0.338900571893,left,1,504,True,right,2,2,295,1,1
1,3JPSL1DZ5SZVDZ7HSXB383RLNOIAN5,159,0.25563944793,0.465453983137,0.603769339648,0.360800282578,left,1,453,True,right,2,2,893,1,1
1,3JPSL1DZ5SZVDZ7HSXB383RLNOIAN5,160,0.26148909479,0.460071212732,0.606546526811,0.307855002198,left,1,710,True,right,2,2,686,0,1
1,3JPSL1DZ5SZVDZ7HSXB383RLNOIAN5,161,0.274099036929,0.459478985881,0.637334141907,0.33532419807,left,1,1174,True,right,2,2,597,1,1
1,3JPSL1DZ5SZVDZ7HSXB383RLNOIAN5,162,0.307966452014,0.46872058764,0.637873391684,0.34623859314,left,1,617,True,right,2,2,923,1,1
1,3JPSL1DZ5SZVDZ7HSXB383RLNOIAN5,163,0.270379620162,0.466356103946,0.646717215096,0.393464062872,left,1,645,True,right,2,2,1002,1,1
1,3JPSL1DZ5SZVDZ7HSXB383RLNOIAN5,164,0.251737674833,0.479336880963,0.619903246132,0.413261205596,left,1,560,True,right,2,2,676,1,1
1,3JPSL1DZ5SZVDZ7HSXB383RLNOIAN5,165,0.286525398425,0.440569128367,0.665760959524,0.388390710515,left,1,605,False,right,2,3,571,1,1
1,3JPSL1DZ5SZVDZ7HSXB383RLNOIAN5,166,0.261801143272,0.465180125042,0.643203603033,0.383915211172,left,1,507,True,right,2,2,599,1,1
1,3JPSL1DZ5SZVDZ7HSXB383RLNOIAN5,167,0.272758270544,0.481601358765,0.636703274324,0.398893295312,left,1,740,True,right,2,2,463,1,1
1,3JPSL1DZ5SZVDZ7HSXB383RLNOIAN5,168,0.269275042302,0.502893453039,0.650418341444,0.359880215179,left,1,528,False,right,2,3,591,0,1
1,3JPSL1DZ5SZVDZ7HSXB383RLNOIAN5,169,0.321244877244,0.528573132907,0.66957626249,0.376463063499,right,2,546,True,right,2,3,1085,0,1
1,3JPSL1DZ5SZVDZ7HSXB383RLNOIAN5,170,0.327522928076,0.508532688437,0.657874425455,0.417988749297,right,2,588,False,right,2,2,754,1,1
1,3JPSL1DZ5SZVDZ7HSXB383RLNOIAN5,171,0.34872481577,0.521911121289,0.655656229698,0.380266706389,right,2,889,True,right,2,3,658,0,1
1,3JPSL1DZ5SZVDZ7HSXB383RLNOIAN5,172,0.336841396031,0.530428789858,0.665971836127,0.435348605431,right,2,980,True,left,1,3,662,0,1
1,3JPSL1DZ5SZVDZ7HSXB383RLNOIAN5,173,0.341837444982,0.543180536576,0.641218605426,0.435268405162,right,2,633,True,right,2,3,959,1,1
1,3JPSL1DZ5SZVDZ7HSXB383RLNOIAN5,174,0.361177028459,0.521201170706,0.655514534501,0.398994989097,right,2,724,True,right,2,3,861,0,1
1,3JPSL1DZ5SZVDZ7HSXB383RLNOIAN5,175,0.364315395636,0.512763678168,0.648019936904,0.412392336042,right,2,1849,False,right,2,2,71,1,1
1,3JPSL1DZ5SZVDZ7HSXB383RLNOIAN5,176,0.325623919085,0.539890651839,0.64529531605,0.410745872858,right,2,461,True,right,2,3,1931,0,1
1,3JPSL1DZ5SZVDZ7HSXB383RLNOIAN5,177,0.328074179675,0.524925149085,0.619815607172,0.411582007364,left,1,362,False,left,1,3,1191,1,1
1,3JPSL1DZ5SZVDZ7HSXB383RLNOIAN5,178,0.305001535271,0.493612808469,0.65849625896,0.406841658435,left,1,793,True,left,1,2,183,0,1
1,3JPSL1DZ5SZVDZ7HSXB383RLNOIAN5,179,0.33002181643,0.469098789392,0.665879712377,0.388386596992,right,2,1011,True,right,2,3,94,1,1
1,3JPSL1DZ5SZVDZ7HSXB383RLNOIAN5,180,0.325471872487,0.471028202714,0.645318430493,0.362128500137,right,2,633,True,right,2,3,906,1,1
1,3JPSL1DZ5SZVDZ7HSXB383RLNOIAN5,181,0.302119409191,0.487451370839,0.634210371211,0.361006423102,right,2,660,False,right,2,2,667,0,1
1,3JPSL1DZ5SZVDZ7HSXB383RLNOIAN5,182,0.319687136795,0.53025520447,0.645170330557,0.344822759162,left,1,468,True,right,2,2,564,0,1
1,3JPSL1DZ5SZVDZ7HSXB383RLNOIAN5,183,0.340622623277,0.558125328014,0.642579369694,0.339710510642,left,1,586,True,right,2,2,2350,1,1
1,3JPSL1DZ5SZVDZ7HSXB383RLNOIAN5,184,0.326804303598,0.549400692329,0.592456717601,0.330638649531,left,1,1191,False,left,1,3,523,0,1
1,3JPSL1DZ5SZVDZ7HSXB383RLNOIAN5,185,0.330197767995,0.557380521394,0.611489817058,0.338332086986,right,2,910,True,right,2,3,572,1,1
1,3JPSL1DZ5SZVDZ7HSXB383RLNOIAN5,186,0.305779190282,0.583624605417,0.613460177028,0.345801403967,right,2,649,True,right,2,3,728,1,1
1,3JPSL1DZ5SZVDZ7HSXB383RLNOIAN5,187,0.301883092183,0.622316346564,0.630140532196,0.38159969755,right,2,506,True,right,2,3,398,0,1
1,3JPSL1DZ5SZVDZ7HSXB383RLNOIAN5,188,0.312907636544,0.586220534512,0.613095018461,0.400276008253,right,2,590,True,left,1,3,783,1,1
1,3JPSL1DZ5SZVDZ7HSXB383RLNOIAN5,189,0.352377051111,0.586986758336,0.572784351066,0.344680966765,right,2,505,True,left,1,3,532,0,1
1,3JPSL1DZ5SZVDZ7HSXB383RLNOIAN5,190,0.344876724602,0.638157165375,0.581975754788,0.351436314975,left,1,805,True,right,2,2,593,0,1
1,3JPSL1DZ5SZVDZ7HSXB383RLNOIAN5,191,0.392391798853,0.667164906322,0.552605566262,0.325587875814,right,2,702,False,left,1,2,2241,1,1
1,3JPSL1DZ5SZVDZ7HSXB383RLNOIAN5,192,0.412042040593,0.644357666507,0.547124920533,0.329218442292,left,1,684,False,right,2,3,132,0,1
1,3JPSL1DZ5SZVDZ7HSXB383RLNOIAN5,193,0.379965792173,0.664566689272,0.570912410757,0.325998113065,left,1,449,True,left,1,2,360,0,1
1,3JPSL1DZ5SZVDZ7HSXB383RLNOIAN5,194,0.389664565012,0.664375095335,0.55849233557,0.366447813253,left,1,326,True,right,2,2,22,1,1
1,3JPSL1DZ5SZVDZ7HSXB383RLNOIAN5,195,0.395044614715,0.72543228023,0.519210011433,0.355126527027,right,2,697,True,right,2,3,1502,0,1
1,3JPSL1DZ5SZVDZ7HSXB383RLNOIAN5,196,0.383792753181,0.712424710636,0.479336007569,0.387209370348,left,1,1609,False,right,2,3,389,1,1
1,3JPSL1DZ5SZVDZ7HSXB383RLNOIAN5,197,0.37306997392,0.734290462084,0.460441785745,0.375364189949,left,1,1064,False,right,2,3,544,1,1
1,3JPSL1DZ5SZVDZ7HSXB383RLNOIAN5,198,0.440370694377,0.747560565418,0.460608262771,0.410302321559,left,1,518,False,right,2,3,694,0,1
1,3JPSL1DZ5SZVDZ7HSXB383RLNOIAN5,199,0.471404410712,0.7366478523,0.467873357418,0.375276531813,right,2,393,True,left,1,3,770,1,1
1,3JPSL1DZ5SZVDZ7HSXB383RLNOIAN5,200,0.487117657235,0.736005509776,0.446751124312,0.402649308091,right,2,860,False,left,1,2,533,1,1
2,3Z3ZLGNNSIUGWBLOZAOAPP8KNNF3QO,1,0.742621470936,0.272532468277,0.71669309271,0.479056705494,right,2,1260,true,right,2,3,1008,1,1
2,3Z3ZLGNNSIUGWBLOZAOAPP8KNNF3QO,2,0.714054437546,0.28956974681,0.711770360008,0.456458310278,right,2,431,true,right,2,3,370,1,1
2,3Z3ZLGNNSIUGWBLOZAOAPP8KNNF3QO,3,0.708947909512,0.346194423994,0.714402963935,0.46593679168,left,1,928,true,left,1,2,1073,1,1
2,3Z3ZLGNNSIUGWBLOZAOAPP8KNNF3QO,4,0.732490347346,0.339447868367,0.704013189795,0.385709276536,left,1,337,true,left,1,2,420,1,1
2,3Z3ZLGNNSIUGWBLOZAOAPP8KNNF3QO,5,0.717249489061,0.407606752597,0.721518196281,0.422206287292,right,2,319,true,right,2,3,435,0,1
2,3Z3ZLGNNSIUGWBLOZAOAPP8KNNF3QO,6,0.6630928988,0.45511262148,0.721181153667,0.404565489562,left,1,303,true,left,1,2,469,0,1
2,3Z3ZLGNNSIUGWBLOZAOAPP8KNNF3QO,7,0.672738831011,0.474384545792,0.743141113631,0.381869747044,right,2,317,true,right,2,3,338,0,1
2,3Z3ZLGNNSIUGWBLOZAOAPP8KNNF3QO,8,0.668045339679,0.480846588706,0.731564879728,0.405588632962,right,2,272,false,right,2,2,355,0,1
2,3Z3ZLGNNSIUGWBLOZAOAPP8KNNF3QO,9,0.669015262022,0.513473956177,0.728107518412,0.40687276212,right,2,367,true,right,2,3,627,0,1
2,3Z3ZLGNNSIUGWBLOZAOAPP8KNNF3QO,10,0.64671120204,0.526146178979,0.730336497662,0.408509497299,right,2,368,false,left,1,2,899,1,1
2,3Z3ZLGNNSIUGWBLOZAOAPP8KNNF3QO,11,0.607944402512,0.543315429143,0.724719472529,0.381349699905,right,2,335,false,left,1,2,1092,1,1
2,3Z3ZLGNNSIUGWBLOZAOAPP8KNNF3QO,12,0.623056850805,0.526648888826,0.697371744877,0.395908106836,right,2,354,true,right,2,3,724,0,1
2,3Z3ZLGNNSIUGWBLOZAOAPP8KNNF3QO,13,0.607721669601,0.554902084053,0.689983332344,0.380218517946,right,2,302,true,left,1,3,612,1,1
2,3Z3ZLGNNSIUGWBLOZAOAPP8KNNF3QO,14,0.642416333717,0.576955978171,0.708708278957,0.341168637042,right,2,337,true,left,1,3,373,1,1
2,3Z3ZLGNNSIUGWBLOZAOAPP8KNNF3QO,15,0.614010351756,0.604034382831,0.732507162725,0.350118401239,left,1,365,false,left,1,3,386,0,1
2,3Z3ZLGNNSIUGWBLOZAOAPP8KNNF3QO,16,0.680413307829,0.594441283734,0.716261232916,0.355798838571,left,1,302,false,left,1,3,659,1,1
2,3Z3ZLGNNSIUGWBLOZAOAPP8KNNF3QO,17,0.67102435131,0.588086274504,0.730069464085,0.330877938548,left,1,408,true,left,1,2,1331,1,1
2,3Z3ZLGNNSIUGWBLOZAOAPP8KNNF3QO,18,0.718432568922,0.568204732239,0.686176168762,0.309765161617,right,2,328,false,left,1,2,753,1,1
2,3Z3ZLGNNSIUGWBLOZAOAPP8KNNF3QO,19,0.713141823764,0.57865702431,0.696062430132,0.367234912443,right,2,370,false,left,1,2,611,1,1
2,3Z3ZLGNNSIUGWBLOZAOAPP8KNNF3QO,20,0.707002308783,0.572723191735,0.701021460261,0.344983910079,right,2,387,true,left,1,3,785,1,1
2,3Z3ZLGNNSIUGWBLOZAOAPP8KNNF3QO,21,0.697338532194,0.583247904064,0.713862580976,0.369623913462,left,1,338,false,left,1,3,849,1,1
2,3Z3ZLGNNSIUGWBLOZAOAPP8KNNF3QO,22,0.683738606376,0.577831132902,0.720175638244,0.347221826515,left,1,531,true,left,1,2,754,1,1
2,3Z3ZLGNNSIUGWBLOZAOAPP8KNNF3QO,23,0.723666933292,0.594247039033,0.678758987791,0.350429018148,right,2,417,true,left,1,3,563,1,1
2,3Z3ZLGNNSIUGWBLOZAOAPP8KNNF3QO,24,0.722552862976,0.64363551746,0.657672810429,0.358987448701,left,1,402,true,left,1,2,594,0,1
2,3Z3ZLGNNSIUGWBLOZAOAPP8KNNF3QO,25,0.729163712473,0.664465485514,0.659189229643,0.373726090068,right,2,352,true,left,1,3,515,0,1
2,3Z3ZLGNNSIUGWBLOZAOAPP8KNNF3QO,26,0.736463051067,0.667677417009,0.633789239965,0.388062858383,left,1,417,false,left,1,3,610,0,1
2,3Z3ZLGNNSIUGWBLOZAOAPP8KNNF3QO,27,0.743521712443,0.680410974005,0.603566014102,0.365819318125,right,2,351,true,left,1,3,560,0,1
2,3Z3ZLGNNSIUGWBLOZAOAPP8KNNF3QO,28,0.732307752744,0.688129657145,0.639730342634,0.324473032481,left,1,271,true,left,1,2,642,1,1
2,3Z3ZLGNNSIUGWBLOZAOAPP8KNNF3QO,29,0.736811669823,0.670863418611,0.612317833639,0.359797741125,left,1,416,true,left,1,2,564,0,1
2,3Z3ZLGNNSIUGWBLOZAOAPP8KNNF3QO,30,0.743345059239,0.664878919109,0.616259626176,0.316896486661,left,1,303,true,left,1,2,369,1,1
2,3Z3ZLGNNSIUGWBLOZAOAPP8KNNF3QO,31,0.746265616093,0.667204230628,0.57959946249,0.31335500672,right,2,321,true,left,1,3,596,0,1
2,3Z3ZLGNNSIUGWBLOZAOAPP8KNNF3QO,32,0.723199980689,0.64267698388,0.581017754762,0.308527186817,right,2,299,true,right,2,3,387,0,1
2,3Z3ZLGNNSIUGWBLOZAOAPP8KNNF3QO,33,0.694695825122,0.703101902478,0.568902198934,0.290605018323,right,2,320,true,left,1,3,370,1,1
2,3Z3ZLGNNSIUGWBLOZAOAPP8KNNF3QO,34,0.67334094861,0.696419411433,0.578031478635,0.309599444775,left,1,319,true,left,1,2,371,1,1
2,3Z3ZLGNNSIUGWBLOZAOAPP8KNNF3QO,35,0.652335091449,0.70438345769,0.59605536339,0.279470956194,left,1,448,true,left,1,2,370,0,1
2,3Z3ZLGNNSIUGWBLOZAOAPP8KNNF3QO,36,0.657451953133,0.683837920999,0.568078580687,0.27404823551,left,1,303,true,left,1,2,372,1,1
2,3Z3ZLGNNSIUGWBLOZAOAPP8KNNF3QO,37,0.675374672435,0.712212599172,0.561377542482,0.284355796866,right,2,331,true,left,1,3,354,1,1
2,3Z3ZLGNNSIUGWBLOZAOAPP8KNNF3QO,38,0.671284094134,0.716259324014,0.566258884749,0.269938039503,left,1,370,false,left,1,3,452,0,1
2,3Z3ZLGNNSIUGWBLOZAOAPP8KNNF3QO,39,0.654751036327,0.744322707512,0.618638427368,0.294912002446,right,2,334,true,left,1,3,387,0,1
2,3Z3ZLGNNSIUGWBLOZAOAPP8KNNF3QO,40,0.660675754074,0.685611640794,0.605892201903,0.270200805787,right,2,302,false,left,1,2,464,1,1
2,3Z3ZLGNNSIUGWBLOZAOAPP8KNNF3QO,41,0.697626230879,0.729448779435,0.608670557774,0.256991528728,left,1,322,false,left,1,3,548,0,1
2,3Z3ZLGNNSIUGWBLOZAOAPP8KNNF3QO,42,0.726645073604,0.717332378805,0.603307527487,0.277574736158,right,2,317,true,left,1,3,545,0,1
2,3Z3ZLGNNSIUGWBLOZAOAPP8KNNF3QO,43,0.710785605187,0.73572032618,0.603035835786,0.300463039776,right,2,288,true,right,2,3,691,0,1
2,3Z3ZLGNNSIUGWBLOZAOAPP8KNNF3QO,44,0.690886938659,0.740720643321,0.608800181298,0.305367115844,right,2,335,true,left,1,3,323,1,1
2,3Z3ZLGNNSIUGWBLOZAOAPP8KNNF3QO,45,0.682073026999,0.726886066092,0.597549552128,0.298118154697,left,1,337,true,left,1,2,323,0,1
2,3Z3ZLGNNSIUGWBLOZAOAPP8KNNF3QO,46,0.692167085493,0.701363725585,0.639345636163,0.368054277054,left,1,319,true,left,1,2,307,0,1
2,3Z3ZLGNNSIUGWBLOZAOAPP8KNNF3QO,47,0.726979525113,0.685298681928,0.665140217735,0.392550601145,left,1,305,true,left,1,2,275,1,1
2,3Z3ZLGNNSIUGWBLOZAOAPP8KNNF3QO,48,0.734914379351,0.68153045423,0.667316355854,0.380373869228,left,1,386,true,left,1,2,436,1,1
2,3Z3ZLGNNSIUGWBLOZAOAPP8KNNF3QO,49,0.714865063908,0.653994687644,0.672014216512,0.367354016553,left,1,366,true,left,1,2,450,0,1
2,3Z3ZLGNNSIUGWBLOZAOAPP8KNNF3QO,50,0.713201331899,0.676140093398,0.674811303487,0.344411485936,left,1,335,true,left,1,2,420,1,1
2,3Z3ZLGNNSIUGWBLOZAOAPP8KNNF3QO,51,0.73310943824,0.669322372281,0.662652287375,0.29720573873,right,2,335,true,right,2,3,452,1,1
2,3Z3ZLGNNSIUGWBLOZAOAPP8KNNF3QO,52,0.700235093867,0.701682886358,0.677069605794,0.332317401302,right,2,338,true,left,1,3,341,0,1
2,3Z3ZLGNNSIUGWBLOZAOAPP8KNNF3QO,53,0.681608516568,0.679629779822,0.681276831864,0.288342858569,right,2,286,false,right,2,2,290,1,1
2,3Z3ZLGNNSIUGWBLOZAOAPP8KNNF3QO,54,0.611253601709,0.660626826063,0.70952385264,0.330572173264,left,1,416,true,left,1,2,371,1,1
2,3Z3ZLGNNSIUGWBLOZAOAPP8KNNF3QO,55,0.66703777187,0.672946186741,0.737926106414,0.317011361338,right,2,414,false,left,1,2,355,1,1
2,3Z3ZLGNNSIUGWBLOZAOAPP8KNNF3QO,56,0.663328365422,0.668736431958,0.720239436976,0.329794236079,right,2,305,true,left,1,3,386,1,1
2,3Z3ZLGNNSIUGWBLOZAOAPP8KNNF3QO,57,0.612291779763,0.64812962841,0.714275483314,0.285713898761,left,1,289,true,left,1,2,324,0,1
2,3Z3ZLGNNSIUGWBLOZAOAPP8KNNF3QO,58,0.601996752534,0.690302803125,0.676016484568,0.271887355155,left,1,336,false,left,1,3,1010,1,1
2,3Z3ZLGNNSIUGWBLOZAOAPP8KNNF3QO,59,0.613291721538,0.709488073072,0.661531678887,0.299130690859,left,1,290,false,right,2,3,387,1,1
2,3Z3ZLGNNSIUGWBLOZAOAPP8KNNF3QO,60,0.576180172387,0.710892275986,0.652653677393,0.314466701606,left,1,305,true,right,2,2,291,1,1
2,3Z3ZLGNNSIUGWBLOZAOAPP8KNNF3QO,61,0.55143212238,0.6853037472,0.679903912304,0.298421798989,left,1,304,true,right,2,2,370,1,1
2,3Z3ZLGNNSIUGWBLOZAOAPP8KNNF3QO,62,0.552884156424,0.712766267125,0.703638809173,0.32433324524,left,1,321,true,right,2,2,404,1,1
2,3Z3ZLGNNSIUGWBLOZAOAPP8KNNF3QO,63,0.523932583535,0.711521035133,0.679767370885,0.337888246509,right,2,322,true,right,2,3,436,0,1
2,3Z3ZLGNNSIUGWBLOZAOAPP8KNNF3QO,64,0.463568418654,0.711676676089,0.654057416911,0.301245991201,right,2,319,false,right,2,2,275,1,1
2,3Z3ZLGNNSIUGWBLOZAOAPP8KNNF3QO,65,0.512684775876,0.72135123212,0.608900413955,0.307315993953,right,2,368,false,right,2,2,388,1,1
2,3Z3ZLGNNSIUGWBLOZAOAPP8KNNF3QO,66,0.4789698412,0.699848934728,0.614568831315,0.250436393356,right,2,321,true,right,2,3,452,0,1
2,3Z3ZLGNNSIUGWBLOZAOAPP8KNNF3QO,67,0.4762029504,0.694385754211,0.632767436931,0.284111851193,left,1,316,true,right,2,2,370,1,1
2,3Z3ZLGNNSIUGWBLOZAOAPP8KNNF3QO,68,0.507081830395,0.677726367322,0.626004736862,0.317292542624,left,1,320,true,right,2,2,338,0,1
2,3Z3ZLGNNSIUGWBLOZAOAPP8KNNF3QO,69,0.530878795539,0.655313569542,0.603059838512,0.35399122944,left,1,287,false,right,2,3,355,0,1
2,3Z3ZLGNNSIUGWBLOZAOAPP8KNNF3QO,70,0.515056866669,0.621614881021,0.58701353054,0.316633763971,left,1,302,true,right,2,2,387,0,1
2,3Z3ZLGNNSIUGWBLOZAOAPP8KNNF3QO,71,0.564088952011,0.605891511566,0.597831961545,0.302344162838,left,1,353,true,left,1,2,354,0,1
2,3Z3ZLGNNSIUGWBLOZAOAPP8KNNF3QO,72,0.54449084523,0.577146163723,0.59199090907,0.331577263471,left,1,320,true,right,2,2,386,0,1
2,3Z3ZLGNNSIUGWBLOZAOAPP8KNNF3QO,73,0.566979079908,0.605338027274,0.564635273227,0.330100786862,left,1,305,true,left,1,2,339,0,1
2,3Z3ZLGNNSIUGWBLOZAOAPP8KNNF3QO,74,0.551299433382,0.607923806021,0.548505305566,0.309216084463,left,1,302,true,right,2,2,308,0,1
2,3Z3ZLGNNSIUGWBLOZAOAPP8KNNF3QO,75,0.542745978,0.589975468932,0.538285961481,0.334258316899,left,1,382,true,left,1,2,259,1,1
2,3Z3ZLGNNSIUGWBLOZAOAPP8KNNF3QO,76,0.561497649091,0.630898581991,0.556776422344,0.331123452327,left,1,402,true,left,1,2,178,0,1
2,3Z3ZLGNNSIUGWBLOZAOAPP8KNNF3QO,77,0.589017199812,0.627952603444,0.550030110147,0.346628080055,right,2,351,true,right,2,3,498,0,1
2,3Z3ZLGNNSIUGWBLOZAOAPP8KNNF3QO,78,0.584186560288,0.579581394278,0.557708870011,0.372955434066,right,2,335,true,left,1,3,404,1,1
2,3Z3ZLGNNSIUGWBLOZAOAPP8KNNF3QO,79,0.663978965977,0.603348757443,0.596450133085,0.335534554466,right,2,63,true,left,1,3,416,1,1
2,3Z3ZLGNNSIUGWBLOZAOAPP8KNNF3QO,80,0.685488538842,0.661324828013,0.628562826405,0.317508487146,right,2,368,true,left,1,3,436,1,1
2,3Z3ZLGNNSIUGWBLOZAOAPP8KNNF3QO,81,0.689540608913,0.642447759192,0.639191253292,0.280146174731,right,2,320,false,left,1,2,435,1,1
2,3Z3ZLGNNSIUGWBLOZAOAPP8KNNF3QO,82,0.710426203535,0.655563840418,0.647453282745,0.260992840152,right,2,355,false,left,1,2,371,0,1
2,3Z3ZLGNNSIUGWBLOZAOAPP8KNNF3QO,83,0.69084005601,0.626748569246,0.618006356653,0.265458837477,right,2,333,false,left,1,2,787,0,1
2,3Z3ZLGNNSIUGWBLOZAOAPP8KNNF3QO,84,0.66045000665,0.589118902235,0.582373787352,0.266296660997,right,2,335,true,left,1,3,339,1,1
2,3Z3ZLGNNSIUGWBLOZAOAPP8KNNF3QO,85,0.692987016621,0.603946174416,0.594937517543,0.304179889849,left,1,338,true,right,2,2,340,1,1
2,3Z3ZLGNNSIUGWBLOZAOAPP8KNNF3QO,86,0.742301951068,0.638028136197,0.598561432857,0.339665013074,left,1,339,true,right,2,2,339,1,1
2,3Z3ZLGNNSIUGWBLOZAOAPP8KNNF3QO,87,0.686698795879,0.686641888378,0.563299184018,0.332946702685,left,1,319,true,right,2,2,323,1,1
2,3Z3ZLGNNSIUGWBLOZAOAPP8KNNF3QO,88,0.690926289258,0.664793565833,0.567644663702,0.350846869979,left,1,337,true,right,2,2,323,1,1
2,3Z3ZLGNNSIUGWBLOZAOAPP8KNNF3QO,89,0.639906407079,0.672512670635,0.552287929984,0.382400271729,right,2,338,false,left,1,2,563,1,1
2,3Z3ZLGNNSIUGWBLOZAOAPP8KNNF3QO,90,0.599526089753,0.702037914288,0.551499978304,0.385810615866,right,2,437,false,right,2,2,670,1,1
2,3Z3ZLGNNSIUGWBLOZAOAPP8KNNF3QO,91,0.571792989341,0.691019576673,0.521950006971,0.435034807193,right,2,335,true,left,1,3,884,1,1
2,3Z3ZLGNNSIUGWBLOZAOAPP8KNNF3QO,92,0.584683137779,0.706512645771,0.51122706761,0.445767985761,right,2,433,true,left,1,3,530,0,1
2,3Z3ZLGNNSIUGWBLOZAOAPP8KNNF3QO,93,0.554861172246,0.711737596545,0.492981519726,0.440683358106,left,1,346,true,right,2,2,433,0,1
2,3Z3ZLGNNSIUGWBLOZAOAPP8KNNF3QO,94,0.56691541983,0.724832553503,0.484850092769,0.421860460474,left,1,206,false,right,2,3,420,1,1
2,3Z3ZLGNNSIUGWBLOZAOAPP8KNNF3QO,95,0.566678637331,0.720026008902,0.464133901312,0.41295891552,left,1,337,true,right,2,2,643,1,1
2,3Z3ZLGNNSIUGWBLOZAOAPP8KNNF3QO,96,0.526879516376,0.731858231709,0.476966682047,0.397678154404,right,2,353,true,left,1,3,643,0,1
2,3Z3ZLGNNSIUGWBLOZAOAPP8KNNF3QO,97,0.495215171763,0.724235293032,0.515579848533,0.441247188452,right,2,382,false,left,1,2,499,0,1
2,3Z3ZLGNNSIUGWBLOZAOAPP8KNNF3QO,98,0.451702131943,0.722808342847,0.534160534675,0.393018126972,right,2,303,false,right,2,2,370,0,1
2,3Z3ZLGNNSIUGWBLOZAOAPP8KNNF3QO,99,0.472061866997,0.665813203964,0.484894662984,0.383038572744,right,2,351,true,left,1,3,739,1,1
2,3Z3ZLGNNSIUGWBLOZAOAPP8KNNF3QO,100,0.44047725176,0.677258434574,0.482475294507,0.368141735434,right,2,513,true,left,1,3,545,1,1
2,3Z3ZLGNNSIUGWBLOZAOAPP8KNNF3QO,101,0.465939039681,0.675360161858,0.477210773749,0.392195785011,left,1,705,true,right,2,2,596,1,1
2,3Z3ZLGNNSIUGWBLOZAOAPP8KNNF3QO,102,0.484780332161,0.725432311224,0.488300642483,0.393341274419,left,1,513,false,right,2,3,531,0,1
2,3Z3ZLGNNSIUGWBLOZAOAPP8KNNF3QO,103,0.483232027022,0.713118198543,0.510764901989,0.382117662374,left,1,383,true,left,1,2,419,0,1
2,3Z3ZLGNNSIUGWBLOZAOAPP8KNNF3QO,104,0.487664781079,0.746520841043,0.488735788724,0.354687213322,left,1,366,true,right,2,2,373,1,1
2,3Z3ZLGNNSIUGWBLOZAOAPP8KNNF3QO,105,0.466196046634,0.738623462929,0.484563566009,0.359013680846,left,1,416,true,right,2,2,305,0,1
2,3Z3ZLGNNSIUGWBLOZAOAPP8KNNF3QO,106,0.442305640081,0.735684662005,0.457603870736,0.422503378505,left,1,302,true,right,2,2,386,1,1
2,3Z3ZLGNNSIUGWBLOZAOAPP8KNNF3QO,107,0.431291039251,0.737970405597,0.474213679147,0.440406871436,left,1,321,true,right,2,2,388,1,1
2,3Z3ZLGNNSIUGWBLOZAOAPP8KNNF3QO,108,0.411758552591,0.726683838125,0.424416267289,0.437138352581,left,1,337,true,right,2,2,418,1,1
2,3Z3ZLGNNSIUGWBLOZAOAPP8KNNF3QO,109,0.426170150128,0.716216452261,0.437737338122,0.394549101032,left,1,367,false,left,1,3,852,1,1
2,3Z3ZLGNNSIUGWBLOZAOAPP8KNNF3QO,110,0.459510607636,0.734927828656,0.409597477729,0.408865363166,left,1,352,true,left,1,2,450,0,1
2,3Z3ZLGNNSIUGWBLOZAOAPP8KNNF3QO,111,0.427067584609,0.687396330944,0.422055811318,0.420048706351,left,1,303,false,left,1,3,867,0,1
2,3Z3ZLGNNSIUGWBLOZAOAPP8KNNF3QO,112,0.396708940978,0.671869621097,0.433717704758,0.409536015214,left,1,288,false,right,2,3,309,0,1
2,3Z3ZLGNNSIUGWBLOZAOAPP8KNNF3QO,113,0.392163878606,0.674074699172,0.421056076456,0.417970716472,left,1,334,true,right,2,2,594,1,1
2,3Z3ZLGNNSIUGWBLOZAOAPP8KNNF3QO,114,0.405190010723,0.621025368561,0.435236166576,0.408741840632,left,1,354,true,right,2,2,691,0,1
2,3Z3ZLGNNSIUGWBLOZAOAPP8KNNF3QO,115,0.438900538552,0.653627324378,0.436495632727,0.413355976541,left,1,368,true,right,2,2,403,0,1
2,3Z3ZLGNNSIUGWBLOZAOAPP8KNNF3QO,116,0.466364070331,0.639706334825,0.420982311789,0.37690224461,left,1,287,true,left,1,2,467,0,1
2,3Z3ZLGNNSIUGWBLOZAOAPP8KNNF3QO,117,0.44593666449,0.664991972369,0.444372392431,0.369366843978,left,1,431,true,right,2,2,564,0,1
2,3Z3ZLGNNSIUGWBLOZAOAPP8KNNF3QO,118,0.412733194721,0.661210229012,0.483239814095,0.329894679932,right,2,379,true,left,1,3,689,0,1
2,3Z3ZLGNNSIUGWBLOZAOAPP8KNNF3QO,119,0.431345823754,0.653591919012,0.468808732687,0.333441714697,right,2,911,true,left,1,3,579,0,1
2,3Z3ZLGNNSIUGWBLOZAOAPP8KNNF3QO,120,0.447208271084,0.62713216337,0.475007496911,0.32802780441,left,1,318,true,right,2,2,805,0,1
2,3Z3ZLGNNSIUGWBLOZAOAPP8KNNF3QO,121,0.504181576761,0.598908450997,0.515211526458,0.320161421711,right,2,381,false,right,2,2,435,0,1
2,3Z3ZLGNNSIUGWBLOZAOAPP8KNNF3QO,122,0.538685689494,0.59872734267,0.581245967994,0.326761785411,left,1,319,true,left,1,2,355,0,1
2,3Z3ZLGNNSIUGWBLOZAOAPP8KNNF3QO,123,0.545842916492,0.565631827948,0.572375519669,0.349220564181,left,1,335,false,left,1,3,341,1,1
2,3Z3ZLGNNSIUGWBLOZAOAPP8KNNF3QO,124,0.534424600245,0.575336677774,0.589370511578,0.317026148602,left,1,302,true,left,1,2,357,1,1
2,3Z3ZLGNNSIUGWBLOZAOAPP8KNNF3QO,125,0.526371932117,0.577041141149,0.5830435132,0.304210055249,left,1,352,true,left,1,2,323,0,1
2,3Z3ZLGNNSIUGWBLOZAOAPP8KNNF3QO,126,0.49512953076,0.52563292561,0.545587063314,0.312630586025,left,1,575,true,left,1,2,357,0,1
2,3Z3ZLGNNSIUGWBLOZAOAPP8KNNF3QO,127,0.530068526255,0.510034012006,0.577867996947,0.29247870187,left,1,317,false,left,1,3,323,1,1
2,3Z3ZLGNNSIUGWBLOZAOAPP8KNNF3QO,128,0.521176469857,0.476556608777,0.587986796524,0.287512284603,left,1,387,true,left,1,2,692,1,1
2,3Z3ZLGNNSIUGWBLOZAOAPP8KNNF3QO,129,0.517407173469,0.451511907077,0.63486949102,0.272527687021,right,2,529,true,left,1,3,628,1,1
2,3Z3ZLGNNSIUGWBLOZAOAPP8KNNF3QO,130,0.519013950795,0.441926101218,0.638098815725,0.259425093522,left,1,548,true,left,1,2,432,0,1
2,3Z3ZLGNNSIUGWBLOZAOAPP8KNNF3QO,131,0.498890596703,0.467441570089,0.653874797874,0.255058599684,left,1,334,true,right,2,2,356,0,1
2,3Z3ZLGNNSIUGWBLOZAOAPP8KNNF3QO,132,0.506975099993,0.5138196349,0.723727134143,0.289296114384,left,1,368,false,left,1,3,466,1,1
2,3Z3ZLGNNSIUGWBLOZAOAPP8KNNF3QO,133,0.478373189761,0.515418585011,0.739344280162,0.319696009516,right,2,368,true,left,1,3,468,1,1
2,3Z3ZLGNNSIUGWBLOZAOAPP8KNNF3QO,134,0.464117630012,0.505406846973,0.710796212728,0.358548929167,left,1,353,false,left,1,3,516,1,1
2,3Z3ZLGNNSIUGWBLOZAOAPP8KNNF3QO,135,0.438161564291,0.512963083972,0.663310280412,0.414164557033,right,2,402,true,left,1,3,434,0,1
2,3Z3ZLGNNSIUGWBLOZAOAPP8KNNF3QO,136,0.437804854271,0.521267445542,0.707140312177,0.381977117266,left,1,400,true,right,2,2,915,0,1
2,3Z3ZLGNNSIUGWBLOZAOAPP8KNNF3QO,137,0.39550576703,0.530734677637,0.722301577653,0.386129965171,left,1,541,true,right,2,2,899,1,1
2,3Z3ZLGNNSIUGWBLOZAOAPP8KNNF3QO,138,0.369825946503,0.529297444232,0.705073970166,0.412192170598,left,1,354,false,right,2,3,386,1,1
2,3Z3ZLGNNSIUGWBLOZAOAPP8KNNF3QO,139,0.340955933434,0.535677091359,0.676049799996,0.397064309229,right,2,353,true,left,1,3,468,0,1
2,3Z3ZLGNNSIUGWBLOZAOAPP8KNNF3QO,140,0.327841930378,0.494485627413,0.67379787808,0.385319942822,-1,2,2500,-1,-1,-1,-1,-1,-1,1
2,3Z3ZLGNNSIUGWBLOZAOAPP8KNNF3QO,141,0.346949999261,0.50276959175,0.631642167891,0.352071439617,left,1,353,false,left,1,3,626,1,1
2,3Z3ZLGNNSIUGWBLOZAOAPP8KNNF3QO,142,0.327683547083,0.479498572317,0.588172558354,0.338016967094,left,1,466,true,right,2,2,658,1,1
2,3Z3ZLGNNSIUGWBLOZAOAPP8KNNF3QO,143,0.345778721519,0.463422938754,0.621093596977,0.356575357295,right,2,419,true,left,1,3,626,1,1
2,3Z3ZLGNNSIUGWBLOZAOAPP8KNNF3QO,144,0.364945822642,0.467786950715,0.638775660409,0.387799137668,right,2,543,true,left,1,3,548,0,1
2,3Z3ZLGNNSIUGWBLOZAOAPP8KNNF3QO,145,0.366856198242,0.479262099846,0.638164830174,0.392213022096,right,2,558,true,left,1,3,610,0,1
2,3Z3ZLGNNSIUGWBLOZAOAPP8KNNF3QO,146,0.353443186556,0.456792617563,0.592292922404,0.419555911538,right,2,334,true,left,1,3,645,0,1
2,3Z3ZLGNNSIUGWBLOZAOAPP8KNNF3QO,147,0.301722088337,0.45830036555,0.622835797891,0.375761582739,left,1,349,false,left,1,3,532,0,1
2,3Z3ZLGNNSIUGWBLOZAOAPP8KNNF3QO,148,0.264341556455,0.449775355421,0.662131127511,0.349120033327,right,2,427,true,left,1,3,516,1,1
2,3Z3ZLGNNSIUGWBLOZAOAPP8KNNF3QO,149,0.264668248755,0.494929555671,0.639769434173,0.358401192005,left,1,448,false,left,1,3,467,0,1
2,3Z3ZLGNNSIUGWBLOZAOAPP8KNNF3QO,150,0.30110562558,0.464280328832,0.609903853688,0.377339726515,right,2,367,true,left,1,3,451,1,1
2,3Z3ZLGNNSIUGWBLOZAOAPP8KNNF3QO,151,0.280623215878,0.481986230299,0.626281431716,0.383460733712,left,1,498,false,left,1,3,418,1,1
2,3Z3ZLGNNSIUGWBLOZAOAPP8KNNF3QO,152,0.304683770407,0.502435718544,0.643640302365,0.391815879345,left,1,321,true,left,1,2,452,1,1
2,3Z3ZLGNNSIUGWBLOZAOAPP8KNNF3QO,153,0.283322642867,0.498139442605,0.642128054045,0.352140031719,left,1,338,true,right,2,2,306,1,1
2,3Z3ZLGNNSIUGWBLOZAOAPP8KNNF3QO,154,0.306269030949,0.451614361835,0.654672308956,0.348380129875,right,2,322,true,left,1,3,580,1,1
2,3Z3ZLGNNSIUGWBLOZAOAPP8KNNF3QO,155,0.308778603441,0.402575938955,0.656372423923,0.342612192118,right,2,305,true,left,1,3,339,0,1
2,3Z3ZLGNNSIUGWBLOZAOAPP8KNNF3QO,156,0.33451263543,0.446579202849,0.658542188835,0.357265872674,left,1,320,true,left,1,2,386,0,1
2,3Z3ZLGNNSIUGWBLOZAOAPP8KNNF3QO,157,0.297271386897,0.430236977273,0.63540553159,0.375693693187,right,2,333,true,left,1,3,322,1,1
2,3Z3ZLGNNSIUGWBLOZAOAPP8KNNF3QO,158,0.28858538497,0.452657205597,0.623941677319,0.338900571893,left,1,400,false,left,1,3,436,1,1
2,3Z3ZLGNNSIUGWBLOZAOAPP8KNNF3QO,159,0.25563944793,0.465453983137,0.603769339648,0.360800282578,left,1,463,true,left,1,2,387,0,1
2,3Z3ZLGNNSIUGWBLOZAOAPP8KNNF3QO,160,0.26148909479,0.460071212732,0.606546526811,0.307855002198,left,1,478,true,right,2,2,466,1,1
2,3Z3ZLGNNSIUGWBLOZAOAPP8KNNF3QO,161,0.274099036929,0.459478985881,0.637334141907,0.33532419807,right,2,680,false,right,2,2,513,0,1
2,3Z3ZLGNNSIUGWBLOZAOAPP8KNNF3QO,162,0.307966452014,0.46872058764,0.637873391684,0.34623859314,right,2,448,true,left,1,3,595,0,1
2,3Z3ZLGNNSIUGWBLOZAOAPP8KNNF3QO,163,0.270379620162,0.466356103946,0.646717215096,0.393464062872,right,2,768,true,left,1,3,657,0,1
2,3Z3ZLGNNSIUGWBLOZAOAPP8KNNF3QO,164,0.251737674833,0.479336880963,0.619903246132,0.413261205596,right,2,497,true,right,2,3,320,1,1
2,3Z3ZLGNNSIUGWBLOZAOAPP8KNNF3QO,165,0.286525398425,0.440569128367,0.665760959524,0.388390710515,right,2,368,true,right,2,3,308,1,1
2,3Z3ZLGNNSIUGWBLOZAOAPP8KNNF3QO,166,0.261801143272,0.465180125042,0.643203603033,0.383915211172,right,2,258,true,right,2,3,531,1,1
2,3Z3ZLGNNSIUGWBLOZAOAPP8KNNF3QO,167,0.272758270544,0.481601358765,0.636703274324,0.398893295312,right,2,384,false,right,2,2,244,0,1
2,3Z3ZLGNNSIUGWBLOZAOAPP8KNNF3QO,168,0.269275042302,0.502893453039,0.650418341444,0.359880215179,right,2,413,false,right,2,2,355,1,1
2,3Z3ZLGNNSIUGWBLOZAOAPP8KNNF3QO,169,0.321244877244,0.528573132907,0.66957626249,0.376463063499,right,2,334,true,right,2,3,354,0,1
2,3Z3ZLGNNSIUGWBLOZAOAPP8KNNF3QO,170,0.327522928076,0.508532688437,0.657874425455,0.417988749297,right,2,366,true,right,2,3,325,1,1
2,3Z3ZLGNNSIUGWBLOZAOAPP8KNNF3QO,171,0.34872481577,0.521911121289,0.655656229698,0.380266706389,right,2,382,true,right,2,3,34,0,1
2,3Z3ZLGNNSIUGWBLOZAOAPP8KNNF3QO,172,0.336841396031,0.530428789858,0.665971836127,0.435348605431,right,2,285,false,right,2,2,9,0,1
2,3Z3ZLGNNSIUGWBLOZAOAPP8KNNF3QO,173,0.341837444982,0.543180536576,0.641218605426,0.435268405162,right,2,521,false,right,2,2,339,0,1
2,3Z3ZLGNNSIUGWBLOZAOAPP8KNNF3QO,174,0.361177028459,0.521201170706,0.655514534501,0.398994989097,right,2,382,false,right,2,2,404,1,1
2,3Z3ZLGNNSIUGWBLOZAOAPP8KNNF3QO,175,0.364315395636,0.512763678168,0.648019936904,0.412392336042,right,2,465,true,right,2,3,388,1,1
2,3Z3ZLGNNSIUGWBLOZAOAPP8KNNF3QO,176,0.325623919085,0.539890651839,0.64529531605,0.410745872858,left,1,367,true,left,1,2,404,1,1
2,3Z3ZLGNNSIUGWBLOZAOAPP8KNNF3QO,177,0.328074179675,0.524925149085,0.619815607172,0.411582007364,left,1,319,true,left,1,2,404,0,1
2,3Z3ZLGNNSIUGWBLOZAOAPP8KNNF3QO,178,0.305001535271,0.493612808469,0.65849625896,0.406841658435,left,1,529,true,left,1,2,336,1,1
2,3Z3ZLGNNSIUGWBLOZAOAPP8KNNF3QO,179,0.33002181643,0.469098789392,0.665879712377,0.388386596992,left,1,433,false,left,1,3,1394,0,1
2,3Z3ZLGNNSIUGWBLOZAOAPP8KNNF3QO,180,0.325471872487,0.471028202714,0.645318430493,0.362128500137,-1,2,2501,-1,-1,-1,-1,-1,-1,1
2,3Z3ZLGNNSIUGWBLOZAOAPP8KNNF3QO,181,0.302119409191,0.487451370839,0.634210371211,0.361006423102,left,1,706,true,left,1,2,403,0,1
2,3Z3ZLGNNSIUGWBLOZAOAPP8KNNF3QO,182,0.319687136795,0.53025520447,0.645170330557,0.344822759162,left,1,466,false,right,2,3,565,0,1
2,3Z3ZLGNNSIUGWBLOZAOAPP8KNNF3QO,183,0.340622623277,0.558125328014,0.642579369694,0.339710510642,right,2,338,true,left,1,3,499,1,1
2,3Z3ZLGNNSIUGWBLOZAOAPP8KNNF3QO,184,0.326804303598,0.549400692329,0.592456717601,0.330638649531,left,1,467,true,left,1,2,692,0,1
2,3Z3ZLGNNSIUGWBLOZAOAPP8KNNF3QO,185,0.330197767995,0.557380521394,0.611489817058,0.338332086986,left,1,335,true,right,2,2,353,1,1
2,3Z3ZLGNNSIUGWBLOZAOAPP8KNNF3QO,186,0.305779190282,0.583624605417,0.613460177028,0.345801403967,left,1,451,true,right,2,2,434,1,1
2,3Z3ZLGNNSIUGWBLOZAOAPP8KNNF3QO,187,0.301883092183,0.622316346564,0.630140532196,0.38159969755,left,1,467,true,right,2,2,469,0,1
2,3Z3ZLGNNSIUGWBLOZAOAPP8KNNF3QO,188,0.312907636544,0.586220534512,0.613095018461,0.400276008253,right,2,464,true,left,1,3,469,0,1
2,3Z3ZLGNNSIUGWBLOZAOAPP8KNNF3QO,189,0.352377051111,0.586986758336,0.572784351066,0.344680966765,right,2,497,false,right,2,2,657,1,1
2,3Z3ZLGNNSIUGWBLOZAOAPP8KNNF3QO,190,0.344876724602,0.638157165375,0.581975754788,0.351436314975,right,2,498,true,right,2,3,756,0,1
2,3Z3ZLGNNSIUGWBLOZAOAPP8KNNF3QO,191,0.392391798853,0.667164906322,0.552605566262,0.325587875814,right,2,513,false,right,2,2,675,0,1
2,3Z3ZLGNNSIUGWBLOZAOAPP8KNNF3QO,192,0.412042040593,0.644357666507,0.547124920533,0.329218442292,left,1,449,true,left,1,2,389,0,1
2,3Z3ZLGNNSIUGWBLOZAOAPP8KNNF3QO,193,0.379965792173,0.664566689272,0.570912410757,0.325998113065,left,1,370,true,right,2,2,691,0,1
2,3Z3ZLGNNSIUGWBLOZAOAPP8KNNF3QO,194,0.389664565012,0.664375095335,0.55849233557,0.366447813253,left,1,323,true,left,1,2,403,0,1
2,3Z3ZLGNNSIUGWBLOZAOAPP8KNNF3QO,195,0.395044614715,0.72543228023,0.519210011433,0.355126527027,left,1,353,true,left,1,2,276,0,1
2,3Z3ZLGNNSIUGWBLOZAOAPP8KNNF3QO,196,0.383792753181,0.712424710636,0.479336007569,0.387209370348,left,1,338,true,right,2,2,308,0,1
2,3Z3ZLGNNSIUGWBLOZAOAPP8KNNF3QO,197,0.37306997392,0.734290462084,0.460441785745,0.375364189949,left,1,337,true,right,2,2,324,1,1
2,3Z3ZLGNNSIUGWBLOZAOAPP8KNNF3QO,198,0.440370694377,0.747560565418,0.460608262771,0.410302321559,left,1,450,true,right,2,2,353,1,1
2,3Z3ZLGNNSIUGWBLOZAOAPP8KNNF3QO,199,0.471404410712,0.7366478523,0.467873357418,0.375276531813,left,1,354,true,right,2,2,500,1,1
2,3Z3ZLGNNSIUGWBLOZAOAPP8KNNF3QO,200,0.487117657235,0.736005509776,0.446751124312,0.402649308091,left,1,449,true,right,2,2,340,1,1
3,337RC3OW052PHN7URFMKRY1933YVL4,1,0.742621470936,0.272532468277,0.71669309271,0.479056705494,left,1,1129,True,left,1,2,1404,1,1
3,337RC3OW052PHN7URFMKRY1933YVL4,2,0.714054437546,0.28956974681,0.711770360008,0.456458310278,left,1,1042,True,left,1,2,2337,1,1
3,337RC3OW052PHN7URFMKRY1933YVL4,3,0.708947909512,0.346194423994,0.714402963935,0.46593679168,left,1,869,True,left,1,2,1545,1,1
3,337RC3OW052PHN7URFMKRY1933YVL4,4,0.732490347346,0.339447868367,0.704013189795,0.385709276536,left,1,728,False,-1,2,3,2500,-1,1
3,337RC3OW052PHN7URFMKRY1933YVL4,5,0.717249489061,0.407606752597,0.721518196281,0.422206287292,left,1,945,True,left,1,2,789,1,1
3,337RC3OW052PHN7URFMKRY1933YVL4,6,0.6630928988,0.45511262148,0.721181153667,0.404565489562,left,1,532,True,left,1,2,629,0,1
3,337RC3OW052PHN7URFMKRY1933YVL4,7,0.672738831011,0.474384545792,0.743141113631,0.381869747044,right,2,990,True,right,2,3,1219,0,1
3,337RC3OW052PHN7URFMKRY1933YVL4,8,0.668045339679,0.480846588706,0.731564879728,0.405588632962,left,1,603,True,right,2,2,961,0,1
3,337RC3OW052PHN7URFMKRY1933YVL4,9,0.669015262022,0.513473956177,0.728107518412,0.40687276212,right,2,651,False,left,1,2,591,1,1
3,337RC3OW052PHN7URFMKRY1933YVL4,10,0.64671120204,0.526146178979,0.730336497662,0.408509497299,right,2,516,False,left,1,2,934,1,1
3,337RC3OW052PHN7URFMKRY1933YVL4,11,0.607944402512,0.543315429143,0.724719472529,0.381349699905,right,2,563,True,left,1,3,1562,1,1
3,337RC3OW052PHN7URFMKRY1933YVL4,12,0.623056850805,0.526648888826,0.697371744877,0.395908106836,right,2,695,False,left,1,2,601,1,1
3,337RC3OW052PHN7URFMKRY1933YVL4,13,0.607721669601,0.554902084053,0.689983332344,0.380218517946,right,2,697,True,left,1,3,1157,1,1
3,337RC3OW052PHN7URFMKRY1933YVL4,14,0.642416333717,0.576955978171,0.708708278957,0.341168637042,right,2,642,True,left,1,3,957,0,1
3,337RC3OW052PHN7URFMKRY1933YVL4,15,0.614010351756,0.604034382831,0.732507162725,0.350118401239,left,1,689,True,left,1,2,947,1,1
3,337RC3OW052PHN7URFMKRY1933YVL4,16,0.680413307829,0.594441283734,0.716261232916,0.355798838571,left,1,541,False,left,1,3,1175,1,1
3,337RC3OW052PHN7URFMKRY1933YVL4,17,0.67102435131,0.588086274504,0.730069464085,0.330877938548,left,1,555,False,left,1,3,778,0,1
3,337RC3OW052PHN7URFMKRY1933YVL4,18,0.718432568922,0.568204732239,0.686176168762,0.309765161617,right,2,601,True,left,1,3,855,0,1
3,337RC3OW052PHN7URFMKRY1933YVL4,19,0.713141823764,0.57865702431,0.696062430132,0.367234912443,right,2,772,True,right,2,3,520,0,1
3,337RC3OW052PHN7URFMKRY1933YVL4,20,0.707002308783,0.572723191735,0.701021460261,0.344983910079,left,1,510,True,left,1,2,609,1,1
3,337RC3OW052PHN7URFMKRY1933YVL4,21,0.697338532194,0.583247904064,0.713862580976,0.369623913462,left,1,542,False,left,1,3,675,0,1
3,337RC3OW052PHN7URFMKRY1933YVL4,22,0.683738606376,0.577831132902,0.720175638244,0.347221826515,left,1,1079,True,left,1,2,1228,0,1
3,337RC3OW052PHN7URFMKRY1933YVL4,23,0.723666933292,0.594247039033,0.678758987791,0.350429018148,left,1,481,True,right,2,2,539,1,1
3,337RC3OW052PHN7URFMKRY1933YVL4,24,0.722552862976,0.64363551746,0.657672810429,0.358987448701,left,1,549,False,right,2,3,557,0,1
3,337RC3OW052PHN7URFMKRY1933YVL4,25,0.729163712473,0.664465485514,0.659189229643,0.373726090068,right,2,579,False,left,1,2,796,0,1
3,337RC3OW052PHN7URFMKRY1933YVL4,26,0.736463051067,0.667677417009,0.633789239965,0.388062858383,right,2,584,True,right,2,3,964,1,1
3,337RC3OW052PHN7URFMKRY1933YVL4,27,0.743521712443,0.680410974005,0.603566014102,0.365819318125,right,2,534,True,right,2,3,867,0,1
3,337RC3OW052PHN7URFMKRY1933YVL4,28,0.732307752744,0.688129657145,0.639730342634,0.324473032481,left,1,546,False,right,2,3,908,0,1
3,337RC3OW052PHN7URFMKRY1933YVL4,29,0.736811669823,0.670863418611,0.612317833639,0.359797741125,left,1,655,True,left,1,2,818,0,1
3,337RC3OW052PHN7URFMKRY1933YVL4,30,0.743345059239,0.664878919109,0.616259626176,0.316896486661,right,2,782,True,left,1,3,601,0,1
3,337RC3OW052PHN7URFMKRY1933YVL4,31,0.746265616093,0.667204230628,0.57959946249,0.31335500672,right,2,570,True,right,2,3,897,1,1
3,337RC3OW052PHN7URFMKRY1933YVL4,32,0.723199980689,0.64267698388,0.581017754762,0.308527186817,right,2,653,True,right,2,3,548,0,1
3,337RC3OW052PHN7URFMKRY1933YVL4,33,0.694695825122,0.703101902478,0.568902198934,0.290605018323,left,1,594,True,left,1,2,865,0,1
3,337RC3OW052PHN7URFMKRY1933YVL4,34,0.67334094861,0.696419411433,0.578031478635,0.309599444775,left,1,648,False,right,2,3,962,0,1
3,337RC3OW052PHN7URFMKRY1933YVL4,35,0.652335091449,0.70438345769,0.59605536339,0.279470956194,right,2,855,True,left,1,3,1231,1,1
3,337RC3OW052PHN7URFMKRY1933YVL4,36,0.657451953133,0.683837920999,0.568078580687,0.27404823551,right,2,878,False,left,1,2,338,1,1
3,337RC3OW052PHN7URFMKRY1933YVL4,37,0.675374672435,0.712212599172,0.561377542482,0.284355796866,right,2,575,True,left,1,3,356,0,1
3,337RC3OW052PHN7URFMKRY1933YVL4,38,0.671284094134,0.716259324014,0.566258884749,0.269938039503,left,1,528,True,left,1,2,644,1,1
3,337RC3OW052PHN7URFMKRY1933YVL4,39,0.654751036327,0.744322707512,0.618638427368,0.294912002446,left,1,620,True,left,1,2,706,1,1
3,337RC3OW052PHN7URFMKRY1933YVL4,40,0.660675754074,0.685611640794,0.605892201903,0.270200805787,left,1,576,False,left,1,3,602,0,1
3,337RC3OW052PHN7URFMKRY1933YVL4,41,0.697626230879,0.729448779435,0.608670557774,0.256991528728,right,2,885,True,right,2,3,1239,0,1
3,337RC3OW052PHN7URFMKRY1933YVL4,42,0.726645073604,0.717332378805,0.603307527487,0.277574736158,left,1,559,False,right,2,3,1225,0,1
3,337RC3OW052PHN7URFMKRY1933YVL4,43,0.710785605187,0.73572032618,0.603035835786,0.300463039776,right,2,784,True,left,1,3,1597,1,1
3,337RC3OW052PHN7URFMKRY1933YVL4,44,0.690886938659,0.740720643321,0.608800181298,0.305367115844,right,2,758,False,left,1,2,1732,0,1
3,337RC3OW052PHN7URFMKRY1933YVL4,45,0.682073026999,0.726886066092,0.597549552128,0.298118154697,right,2,1230,True,right,2,3,1489,1,1
3,337RC3OW052PHN7URFMKRY1933YVL4,46,0.692167085493,0.701363725585,0.639345636163,0.368054277054,right,2,556,True,right,2,3,872,1,1
3,337RC3OW052PHN7URFMKRY1933YVL4,47,0.726979525113,0.685298681928,0.665140217735,0.392550601145,right,2,537,False,left,1,2,1947,1,1
3,337RC3OW052PHN7URFMKRY1933YVL4,48,0.734914379351,0.68153045423,0.667316355854,0.380373869228,right,2,662,False,left,1,2,700,1,1
3,337RC3OW052PHN7URFMKRY1933YVL4,49,0.714865063908,0.653994687644,0.672014216512,0.367354016553,right,2,638,False,left,1,2,781,0,1
3,337RC3OW052PHN7URFMKRY1933YVL4,50,0.713201331899,0.676140093398,0.674811303487,0.344411485936,right,2,976,False,right,2,2,946,1,1
3,337RC3OW052PHN7URFMKRY1933YVL4,51,0.73310943824,0.669322372281,0.662652287375,0.29720573873,right,2,583,True,right,2,3,1062,0,1
3,337RC3OW052PHN7URFMKRY1933YVL4,52,0.700235093867,0.701682886358,0.677069605794,0.332317401302,left,1,616,False,right,2,3,1529,0,1
3,337RC3OW052PHN7URFMKRY1933YVL4,53,0.681608516568,0.679629779822,0.681276831864,0.288342858569,left,1,734,True,left,1,2,1186,1,1
3,337RC3OW052PHN7URFMKRY1933YVL4,54,0.611253601709,0.660626826063,0.70952385264,0.330572173264,left,1,752,False,left,1,3,737,0,1
3,337RC3OW052PHN7URFMKRY1933YVL4,55,0.66703777187,0.672946186741,0.737926106414,0.317011361338,left,1,873,True,left,1,2,825,1,1
3,337RC3OW052PHN7URFMKRY1933YVL4,56,0.663328365422,0.668736431958,0.720239436976,0.329794236079,left,1,782,True,left,1,2,844,0,1
3,337RC3OW052PHN7URFMKRY1933YVL4,57,0.612291779763,0.64812962841,0.714275483314,0.285713898761,right,2,608,True,left,1,3,1583,1,1
3,337RC3OW052PHN7URFMKRY1933YVL4,58,0.601996752534,0.690302803125,0.676016484568,0.271887355155,right,2,542,False,left,1,2,669,0,1
3,337RC3OW052PHN7URFMKRY1933YVL4,59,0.613291721538,0.709488073072,0.661531678887,0.299130690859,right,2,728,True,right,2,3,1281,0,1
3,337RC3OW052PHN7URFMKRY1933YVL4,60,0.576180172387,0.710892275986,0.652653677393,0.314466701606,left,1,575,True,left,1,2,829,0,1
3,337RC3OW052PHN7URFMKRY1933YVL4,61,0.55143212238,0.6853037472,0.679903912304,0.298421798989,left,1,601,True,right,2,2,1201,1,1
3,337RC3OW052PHN7URFMKRY1933YVL4,62,0.552884156424,0.712766267125,0.703638809173,0.32433324524,left,1,633,True,right,2,2,1018,1,1
3,337RC3OW052PHN7URFMKRY1933YVL4,63,0.523932583535,0.711521035133,0.679767370885,0.337888246509,left,1,593,True,right,2,2,736,0,1
3,337RC3OW052PHN7URFMKRY1933YVL4,64,0.463568418654,0.711676676089,0.654057416911,0.301245991201,right,2,516,True,left,1,3,1573,1,1
3,337RC3OW052PHN7URFMKRY1933YVL4,65,0.512684775876,0.72135123212,0.608900413955,0.307315993953,right,2,401,True,left,1,3,814,1,1
3,337RC3OW052PHN7URFMKRY1933YVL4,66,0.4789698412,0.699848934728,0.614568831315,0.250436393356,right,2,528,True,left,1,3,697,1,1
3,337RC3OW052PHN7URFMKRY1933YVL4,67,0.4762029504,0.694385754211,0.632767436931,0.284111851193,right,2,591,True,left,1,3,95,1,1
3,337RC3OW052PHN7URFMKRY1933YVL4,68,0.507081830395,0.677726367322,0.626004736862,0.317292542624,right,2,643,True,left,1,3,190,1,1
3,337RC3OW052PHN7URFMKRY1933YVL4,69,0.530878795539,0.655313569542,0.603059838512,0.35399122944,right,2,489,False,left,1,2,1842,0,1
3,337RC3OW052PHN7URFMKRY1933YVL4,70,0.515056866669,0.621614881021,0.58701353054,0.316633763971,left,1,733,True,left,1,2,1615,1,1
3,337RC3OW052PHN7URFMKRY1933YVL4,71,0.564088952011,0.605891511566,0.597831961545,0.302344162838,left,1,515,True,left,1,2,525,1,1
3,337RC3OW052PHN7URFMKRY1933YVL4,72,0.54449084523,0.577146163723,0.59199090907,0.331577263471,left,1,635,True,left,1,2,558,1,1
3,337RC3OW052PHN7URFMKRY1933YVL4,73,0.566979079908,0.605338027274,0.564635273227,0.330100786862,left,1,743,False,left,1,3,186,1,1
3,337RC3OW052PHN7URFMKRY1933YVL4,74,0.551299433382,0.607923806021,0.548505305566,0.309216084463,left,1,684,True,left,1,2,1201,1,1
3,337RC3OW052PHN7URFMKRY1933YVL4,75,0.542745978,0.589975468932,0.538285961481,0.334258316899,left,1,588,True,left,1,2,991,0,1
3,337RC3OW052PHN7URFMKRY1933YVL4,76,0.561497649091,0.630898581991,0.556776422344,0.331123452327,right,2,850,False,right,2,2,1421,1,1
3,337RC3OW052PHN7URFMKRY1933YVL4,77,0.589017199812,0.627952603444,0.550030110147,0.346628080055,right,2,575,True,left,1,3,2099,1,1
3,337RC3OW052PHN7URFMKRY1933YVL4,78,0.584186560288,0.579581394278,0.557708870011,0.372955434066,right,2,659,True,left,1,3,133,0,1
3,337RC3OW052PHN7URFMKRY1933YVL4,79,0.663978965977,0.603348757443,0.596450133085,0.335534554466,left,1,940,True,left,1,2,1226,0,1
3,337RC3OW052PHN7URFMKRY1933YVL4,80,0.685488538842,0.661324828013,0.628562826405,0.317508487146,left,1,701,True,right,2,2,579,1,1
3,337RC3OW052PHN7URFMKRY1933YVL4,81,0.689540608913,0.642447759192,0.639191253292,0.280146174731,left,1,789,False,right,2,3,606,1,1
3,337RC3OW052PHN7URFMKRY1933YVL4,82,0.710426203535,0.655563840418,0.647453282745,0.260992840152,left,1,519,True,right,2,2,610,1,1
3,337RC3OW052PHN7URFMKRY1933YVL4,83,0.69084005601,0.626748569246,0.618006356653,0.265458837477,left,1,710,True,right,2,2,596,0,1
3,337RC3OW052PHN7URFMKRY1933YVL4,84,0.66045000665,0.589118902235,0.582373787352,0.266296660997,left,1,627,True,left,1,2,1079,1,1
3,337RC3OW052PHN7URFMKRY1933YVL4,85,0.692987016621,0.603946174416,0.594937517543,0.304179889849,left,1,648,False,left,1,3,979,0,1
3,337RC3OW052PHN7URFMKRY1933YVL4,86,0.742301951068,0.638028136197,0.598561432857,0.339665013074,right,2,867,True,right,2,3,1427,0,1
3,337RC3OW052PHN7URFMKRY1933YVL4,87,0.686698795879,0.686641888378,0.563299184018,0.332946702685,right,2,771,True,left,1,3,666,1,1
3,337RC3OW052PHN7URFMKRY1933YVL4,88,0.690926289258,0.664793565833,0.567644663702,0.350846869979,right,2,567,True,left,1,3,74,1,1
3,337RC3OW052PHN7URFMKRY1933YVL4,89,0.639906407079,0.672512670635,0.552287929984,0.382400271729,right,2,419,True,left,1,3,29,1,1
3,337RC3OW052PHN7URFMKRY1933YVL4,90,0.599526089753,0.702037914288,0.551499978304,0.385810615866,right,2,558,True,left,1,3,181,0,1
3,337RC3OW052PHN7URFMKRY1933YVL4,91,0.571792989341,0.691019576673,0.521950006971,0.435034807193,left,1,595,False,right,2,3,1647,1,1
3,337RC3OW052PHN7URFMKRY1933YVL4,92,0.584683137779,0.706512645771,0.51122706761,0.445767985761,left,1,619,True,left,1,2,1619,0,1
3,337RC3OW052PHN7URFMKRY1933YVL4,93,0.554861172246,0.711737596545,0.492981519726,0.440683358106,left,1,695,True,right,2,2,843,1,1
3,337RC3OW052PHN7URFMKRY1933YVL4,94,0.56691541983,0.724832553503,0.484850092769,0.421860460474,left,1,758,True,right,2,2,1060,1,1
3,337RC3OW052PHN7URFMKRY1933YVL4,95,0.566678637331,0.720026008902,0.464133901312,0.41295891552,left,1,546,True,right,2,2,32,0,1
3,337RC3OW052PHN7URFMKRY1933YVL4,96,0.526879516376,0.731858231709,0.476966682047,0.397678154404,right,2,1179,True,left,1,3,1208,1,1
3,337RC3OW052PHN7URFMKRY1933YVL4,97,0.495215171763,0.724235293032,0.515579848533,0.441247188452,right,2,588,True,left,1,3,497,0,1
3,337RC3OW052PHN7URFMKRY1933YVL4,98,0.451702131943,0.722808342847,0.534160534675,0.393018126972,right,2,1483,True,right,2,3,2320,0,1
3,337RC3OW052PHN7URFMKRY1933YVL4,99,0.472061866997,0.665813203964,0.484894662984,0.383038572744,left,1,640,True,left,1,2,1104,0,1
3,337RC3OW052PHN7URFMKRY1933YVL4,100,0.44047725176,0.677258434574,0.482475294507,0.368141735434,left,1,724,True,right,2,2,464,1,1
3,337RC3OW052PHN7URFMKRY1933YVL4,101,0.465939039681,0.675360161858,0.477210773749,0.392195785011,left,1,538,True,right,2,2,1057,1,1
3,337RC3OW052PHN7URFMKRY1933YVL4,102,0.484780332161,0.725432311224,0.488300642483,0.393341274419,left,1,548,False,right,2,3,674,1,1
3,337RC3OW052PHN7URFMKRY1933YVL4,103,0.483232027022,0.713118198543,0.510764901989,0.382117662374,left,1,125,True,right,2,2,689,1,1
3,337RC3OW052PHN7URFMKRY1933YVL4,104,0.487664781079,0.746520841043,0.488735788724,0.354687213322,left,1,576,True,right,2,2,18,1,1
3,337RC3OW052PHN7URFMKRY1933YVL4,105,0.466196046634,0.738623462929,0.484563566009,0.359013680846,left,1,553,False,right,2,3,624,0,1
3,337RC3OW052PHN7URFMKRY1933YVL4,106,0.442305640081,0.735684662005,0.457603870736,0.422503378505,left,1,785,True,right,2,2,860,0,1
3,337RC3OW052PHN7URFMKRY1933YVL4,107,0.431291039251,0.737970405597,0.474213679147,0.440406871436,right,2,548,True,left,1,3,1186,1,1
3,337RC3OW052PHN7URFMKRY1933YVL4,108,0.411758552591,0.726683838125,0.424416267289,0.437138352581,right,2,509,True,left,1,3,624,1,1
3,337RC3OW052PHN7URFMKRY1933YVL4,109,0.426170150128,0.716216452261,0.437737338122,0.394549101032,right,2,610,True,left,1,3,474,0,1
3,337RC3OW052PHN7URFMKRY1933YVL4,110,0.459510607636,0.734927828656,0.409597477729,0.408865363166,left,1,810,True,left,1,2,1493,0,1
3,337RC3OW052PHN7URFMKRY1933YVL4,111,0.427067584609,0.687396330944,0.422055811318,0.420048706351,right,2,1254,True,left,1,3,621,0,1
3,337RC3OW052PHN7URFMKRY1933YVL4,112,0.396708940978,0.671869621097,0.433717704758,0.409536015214,left,1,438,True,right,2,2,851,1,1
3,337RC3OW052PHN7URFMKRY1933YVL4,113,0.392163878606,0.674074699172,0.421056076456,0.417970716472,left,1,690,False,right,2,3,532,1,1
3,337RC3OW052PHN7URFMKRY1933YVL4,114,0.405190010723,0.621025368561,0.435236166576,0.408741840632,left,1,597,False,right,2,3,609,1,1
3,337RC3OW052PHN7URFMKRY1933YVL4,115,0.438900538552,0.653627324378,0.436495632727,0.413355976541,left,1,496,True,right,2,2,823,1,1
3,337RC3OW052PHN7URFMKRY1933YVL4,116,0.466364070331,0.639706334825,0.420982311789,0.37690224461,left,1,421,False,right,2,3,639,1,1
3,337RC3OW052PHN7URFMKRY1933YVL4,117,0.44593666449,0.664991972369,0.444372392431,0.369366843978,left,1,481,True,right,2,2,782,1,1
3,337RC3OW052PHN7URFMKRY1933YVL4,118,0.412733194721,0.661210229012,0.483239814095,0.329894679932,left,1,534,True,right,2,2,847,1,1
3,337RC3OW052PHN7URFMKRY1933YVL4,119,0.431345823754,0.653591919012,0.468808732687,0.333441714697,left,1,533,True,right,2,2,585,0,1
3,337RC3OW052PHN7URFMKRY1933YVL4,120,0.447208271084,0.62713216337,0.475007496911,0.32802780441,left,1,1192,True,left,1,2,658,0,1
3,337RC3OW052PHN7URFMKRY1933YVL4,121,0.504181576761,0.598908450997,0.515211526458,0.320161421711,right,2,478,True,left,1,3,1092,1,1
3,337RC3OW052PHN7URFMKRY1933YVL4,122,0.538685689494,0.59872734267,0.581245967994,0.326761785411,right,2,583,False,left,1,2,589,1,1
3,337RC3OW052PHN7URFMKRY1933YVL4,123,0.545842916492,0.565631827948,0.572375519669,0.349220564181,right,2,531,False,left,1,2,571,1,1
3,337RC3OW052PHN7URFMKRY1933YVL4,124,0.534424600245,0.575336677774,0.589370511578,0.317026148602,right,2,518,False,left,1,2,628,0,1
3,337RC3OW052PHN7URFMKRY1933YVL4,125,0.526371932117,0.577041141149,0.5830435132,0.304210055249,left,1,1869,True,left,1,2,1336,0,1
3,337RC3OW052PHN7URFMKRY1933YVL4,126,0.49512953076,0.52563292561,0.545587063314,0.312630586025,left,1,777,True,right,2,2,545,0,1
3,337RC3OW052PHN7URFMKRY1933YVL4,127,0.530068526255,0.510034012006,0.577867996947,0.29247870187,right,2,464,True,right,2,3,1223,0,1
3,337RC3OW052PHN7URFMKRY1933YVL4,128,0.521176469857,0.476556608777,0.587986796524,0.287512284603,right,2,606,True,left,1,3,566,1,1
3,337RC3OW052PHN7URFMKRY1933YVL4,129,0.517407173469,0.451511907077,0.63486949102,0.272527687021,right,2,580,True,left,1,3,502,1,1
3,337RC3OW052PHN7URFMKRY1933YVL4,130,0.519013950795,0.441926101218,0.638098815725,0.259425093522,right,2,591,True,left,1,3,133,1,1
3,337RC3OW052PHN7URFMKRY1933YVL4,131,0.498890596703,0.467441570089,0.653874797874,0.255058599684,right,2,508,True,left,1,3,676,0,1
3,337RC3OW052PHN7URFMKRY1933YVL4,132,0.506975099993,0.5138196349,0.723727134143,0.289296114384,right,2,846,True,right,2,3,478,0,1
3,337RC3OW052PHN7URFMKRY1933YVL4,133,0.478373189761,0.515418585011,0.739344280162,0.319696009516,left,1,572,False,left,1,3,310,1,1
3,337RC3OW052PHN7URFMKRY1933YVL4,134,0.464117630012,0.505406846973,0.710796212728,0.358548929167,left,1,490,False,left,1,3,29,1,1
3,337RC3OW052PHN7URFMKRY1933YVL4,135,0.438161564291,0.512963083972,0.663310280412,0.414164557033,left,1,358,True,left,1,2,268,0,1
3,337RC3OW052PHN7URFMKRY1933YVL4,136,0.437804854271,0.521267445542,0.707140312177,0.381977117266,left,1,482,True,right,2,2,741,0,1
3,337RC3OW052PHN7URFMKRY1933YVL4,137,0.39550576703,0.530734677637,0.722301577653,0.386129965171,right,2,449,False,left,1,2,1360,0,1
3,337RC3OW052PHN7URFMKRY1933YVL4,138,0.369825946503,0.529297444232,0.705073970166,0.412192170598,right,2,548,True,right,2,3,892,0,1
3,337RC3OW052PHN7URFMKRY1933YVL4,139,0.340955933434,0.535677091359,0.676049799996,0.397064309229,right,2,1054,True,left,1,3,1826,0,1
3,337RC3OW052PHN7URFMKRY1933YVL4,140,0.327841930378,0.494485627413,0.67379787808,0.385319942822,left,1,495,False,left,1,3,1105,1,1
3,337RC3OW052PHN7URFMKRY1933YVL4,141,0.346949999261,0.50276959175,0.631642167891,0.352071439617,left,1,609,True,left,1,2,1339,0,1
3,337RC3OW052PHN7URFMKRY1933YVL4,142,0.327683547083,0.479498572317,0.588172558354,0.338016967094,left,1,621,True,right,2,2,1220,1,1
3,337RC3OW052PHN7URFMKRY1933YVL4,143,0.345778721519,0.463422938754,0.621093596977,0.356575357295,left,1,563,True,right,2,2,640,1,1
3,337RC3OW052PHN7URFMKRY1933YVL4,144,0.364945822642,0.467786950715,0.638775660409,0.387799137668,left,1,496,False,right,2,3,100,0,1
3,337RC3OW052PHN7URFMKRY1933YVL4,145,0.366856198242,0.479262099846,0.638164830174,0.392213022096,left,1,952,True,right,2,2,691,0,1
3,337RC3OW052PHN7URFMKRY1933YVL4,146,0.353443186556,0.456792617563,0.592292922404,0.419555911538,right,2,842,True,left,1,3,1476,0,1
3,337RC3OW052PHN7URFMKRY1933YVL4,147,0.301722088337,0.45830036555,0.622835797891,0.375761582739,right,2,635,True,right,2,3,696,0,1
3,337RC3OW052PHN7URFMKRY1933YVL4,148,0.264341556455,0.449775355421,0.662131127511,0.349120033327,left,1,390,True,left,1,2,842,1,1
3,337RC3OW052PHN7URFMKRY1933YVL4,149,0.264668248755,0.494929555671,0.639769434173,0.358401192005,left,1,450,False,left,1,3,845,1,1
3,337RC3OW052PHN7URFMKRY1933YVL4,150,0.30110562558,0.464280328832,0.609903853688,0.377339726515,left,1,422,True,left,1,2,660,0,1
3,337RC3OW052PHN7URFMKRY1933YVL4,151,0.280623215878,0.481986230299,0.626281431716,0.383460733712,left,1,563,False,right,2,3,882,1,1
3,337RC3OW052PHN7URFMKRY1933YVL4,152,0.304683770407,0.502435718544,0.643640302365,0.391815879345,left,1,564,True,right,2,2,429,0,1
3,337RC3OW052PHN7URFMKRY1933YVL4,153,0.283322642867,0.498139442605,0.642128054045,0.352140031719,right,2,443,False,left,1,2,740,0,1
3,337RC3OW052PHN7URFMKRY1933YVL4,154,0.306269030949,0.451614361835,0.654672308956,0.348380129875,right,2,598,True,right,2,3,642,1,1
3,337RC3OW052PHN7URFMKRY1933YVL4,155,0.308778603441,0.402575938955,0.656372423923,0.342612192118,right,2,480,True,right,2,3,532,1,1
3,337RC3OW052PHN7URFMKRY1933YVL4,156,0.33451263543,0.446579202849,0.658542188835,0.357265872674,right,2,493,True,right,2,3,466,0,1
3,337RC3OW052PHN7URFMKRY1933YVL4,157,0.297271386897,0.430236977273,0.63540553159,0.375693693187,left,1,517,True,left,1,2,667,0,1
3,337RC3OW052PHN7URFMKRY1933YVL4,158,0.28858538497,0.452657205597,0.623941677319,0.338900571893,left,1,395,True,right,2,2,502,0,1
3,337RC3OW052PHN7URFMKRY1933YVL4,159,0.25563944793,0.465453983137,0.603769339648,0.360800282578,right,2,216,True,left,1,3,544,1,1
3,337RC3OW052PHN7URFMKRY1933YVL4,160,0.26148909479,0.460071212732,0.606546526811,0.307855002198,right,2,405,True,left,1,3,436,0,1
3,337RC3OW052PHN7URFMKRY1933YVL4,161,0.274099036929,0.459478985881,0.637334141907,0.33532419807,right,2,574,True,right,2,3,536,0,1
3,337RC3OW052PHN7URFMKRY1933YVL4,162,0.307966452014,0.46872058764,0.637873391684,0.34623859314,left,1,440,True,left,1,2,832,1,1
3,337RC3OW052PHN7URFMKRY1933YVL4,163,0.270379620162,0.466356103946,0.646717215096,0.393464062872,left,1,437,True,left,1,2,358,0,1
3,337RC3OW052PHN7URFMKRY1933YVL4,164,0.251737674833,0.479336880963,0.619903246132,0.413261205596,left,1,605,False,right,2,3,711,1,1
3,337RC3OW052PHN7URFMKRY1933YVL4,165,0.286525398425,0.440569128367,0.665760959524,0.388390710515,left,1,569,True,right,2,2,612,1,1
3,337RC3OW052PHN7URFMKRY1933YVL4,166,0.261801143272,0.465180125042,0.643203603033,0.383915211172,left,1,472,True,right,2,2,711,0,1
